# falldetect-gkl fd_studio v1
# label=walking
# mount=neck
# subject=s01
# started=2026-09-20T22:49:11
# units=accel milli-g, gyro deci-dps
# firmware=unknown
# notes=
seq,ax,ay,az,gx,gy,gz
88039,263,960,-134,4,-19,16
88040,263,958,-131,4,-18,16
88041,261,965,-130,5,-21,18
88042,257,961,-131,4,-21,17
88043,258,957,-128,5,-23,16
88044,257,957,-124,5,-23,18
88045,264,955,-126,5,-25,18
88046,258,960,-125,5,-27,18
88047,260,953,-127,4,-27,18
88048,261,961,-123,4,-27,16
88049,254,957,-122,4,-26,18
88050,256,963,-123,3,-26,16
88051,263,958,-123,4,-26,16
88052,256,954,-121,4,-27,17
88053,254,955,-126,3,-25,17
88054,257,956,-124,3,-21,15
88055,254,957,-126,3,-21,16
88056,261,959,-118,4,-19,16
88057,262,957,-126,6,-20,16
88058,257,959,-124,5,-17,17
88059,259,955,-121,6,-14,17
88060,261,961,-130,7,-13,18
88061,261,956,-126,7,-13,17
88062,261,957,-120,7,-11,18
88063,261,960,-127,8,-10,19
88064,264,953,-127,8,-9,18
88065,258,957,-127,7,-11,18
88066,269,961,-131,7,-10,18
88067,262,955,-128,7,-13,17
88068,270,960,-133,8,-16,18
88069,268,953,-128,8,-18,21
88070,267,957,-123,7,-17,20
88071,271,958,-134,7,-17,20
88072,265,959,-126,7,-16,21
88073,260,963,-129,7,-17,20
88074,261,960,-127,7,-16,18
88075,264,966,-123,8,-16,20
88076,257,958,-130,7,-16,18
88077,262,966,-122,7,-17,16
88078,261,966,-120,6,-18,16
88079,257,967,-119,6,-21,16
88080,259,963,-124,5,-23,18
88081,262,961,-122,5,-23,19
88082,257,954,-120,4,-23,22
88083,260,953,-121,5,-22,21
88084,260,955,-121,6,-21,21
88085,259,953,-122,6,-21,20
88086,257,955,-126,5,-18,21
88087,259,960,-124,5,-17,21
88088,258,959,-127,5,-15,19
88089,259,961,-126,6,-13,19
88090,262,955,-131,7,-11,20
88091,268,960,-130,7,-11,21
88092,267,960,-133,6,-11,20
88093,271,956,-133,7,-11,21
88094,266,961,-132,7,-11,22
88095,270,962,-126,7,-13,22
88096,270,957,-131,7,-17,21
88097,272,958,-125,9,-18,21
88098,273,956,-125,9,-20,22
88099,270,956,-130,9,-23,22
88100,267,955,-131,7,-24,21
88101,267,955,-127,8,-25,21
88102,264,952,-131,9,-26,21
88103,272,956,-134,7,-28,20
88104,266,955,-129,7,-28,18
88105,264,957,-122,6,-27,18
88106,266,953,-124,6,-26,16
88107,265,961,-128,4,-26,15
88108,263,953,-128,5,-26,14
88109,266,960,-123,4,-26,12
88110,272,958,-127,4,-26,9
88111,275,953,-118,4,-27,9
88112,271,961,-126,5,-27,8
88113,276,961,-126,4,-29,5
88114,272,965,-125,4,-29,4
88115,279,961,-124,4,-31,4
88116,273,954,-125,2,-32,4
88117,277,955,-127,2,-32,5
88118,281,958,-130,2,-32,4
88119,275,956,-129,1,-32,4
88120,274,957,-130,1,-33,4
88121,274,961,-125,2,-33,4
88122,273,967,-125,2,-34,4
88123,267,965,-125,2,-34,7
88124,269,961,-127,4,-35,7
88125,273,961,-122,6,-37,7
88126,271,962,-125,7,-39,10
88127,269,959,-131,9,-40,11
88128,272,963,-133,8,-41,11
88129,264,958,-127,7,-40,13
88130,263,957,-122,7,-39,14
88131,260,957,-129,7,-39,14
88132,256,957,-130,8,-39,14
88133,264,958,-122,7,-40,14
88134,257,964,-119,5,-39,13
88135,256,954,-122,6,-39,15
88136,253,962,-119,6,-40,14
88137,251,958,-122,4,-39,13
88138,249,962,-121,4,-39,13
88139,256,963,-126,4,-39,13
88140,250,968,-124,5,-39,12
88141,256,962,-124,6,-37,11
88142,250,955,-122,6,-35,10
88143,249,961,-115,6,-34,10
88144,248,960,-118,7,-31,11
88145,248,963,-128,7,-28,9
88146,245,956,-128,7,-25,11
88147,247,957,-132,7,-23,11
88148,249,956,-124,6,-20,10
88149,252,960,-123,7,-17,11
88150,251,954,-128,7,-15,10
88151,254,960,-130,7,-12,9
88152,255,953,-137,7,-11,10
88153,255,961,-131,9,-12,9
88154,252,957,-131,8,-11,8
88155,260,959,-127,9,-11,10
88156,259,963,-129,11,-11,10
88157,256,959,-134,11,-12,9
88158,256,959,-131,11,-11,9
88159,261,966,-129,12,-13,9
88160,261,964,-131,11,-13,7
88161,257,964,-131,11,-14,9
88162,255,967,-130,11,-13,9
88163,263,961,-132,12,-14,9
88164,262,962,-129,11,-16,9
88165,261,962,-126,11,-16,8
88166,260,960,-136,11,-18,8
88167,259,964,-133,10,-18,9
88168,262,961,-138,10,-18,9
88169,259,961,-133,9,-19,9
88170,259,955,-133,9,-20,9
88171,251,956,-132,9,-21,9
88172,257,953,-131,9,-20,9
88173,255,958,-126,8,-21,9
88174,253,956,-131,8,-20,9
88175,256,960,-129,7,-21,9
88176,256,955,-127,6,-21,11
88177,257,955,-122,5,-21,10
88178,256,951,-129,4,-21,11
88179,255,959,-126,3,-23,12
88180,250,950,-128,2,-23,11
88181,256,956,-128,2,-24,11
88182,256,956,-126,3,-25,11
88183,261,953,-132,2,-26,11
88184,257,955,-123,3,-26,13
88185,253,953,-133,2,-25,13
88186,254,958,-129,2,-25,14
88187,259,958,-128,3,-25,14
88188,260,964,-130,4,-24,14
88189,259,962,-127,3,-24,16
88190,259,956,-138,3,-22,16
88191,254,960,-133,4,-21,17
88192,261,964,-130,4,-20,17
88193,259,960,-133,3,-18,16
88194,258,962,-133,4,-16,16
88195,258,960,-131,4,-16,16
88196,257,956,-135,4,-16,15
88197,259,955,-136,6,-16,14
88198,261,958,-135,4,-18,14
88199,267,957,-130,4,-20,12
88200,264,955,-127,4,-24,12
88201,264,956,-132,4,-27,12
88202,266,961,-127,4,-28,11
88203,261,964,-132,4,-29,12
88204,260,958,-128,5,-30,12
88205,261,965,-126,4,-30,11
88206,256,964,-132,4,-28,9
88207,264,962,-126,3,-28,8
88208,255,962,-125,4,-25,8
88209,251,966,-125,4,-26,7
88210,250,960,-121,4,-24,9
88211,250,962,-119,4,-25,9
88212,248,960,-125,4,-25,9
88213,254,959,-121,4,-25,11
88214,252,957,-123,4,-23,13
88215,252,951,-121,6,-23,16
88216,255,952,-118,6,-20,18
88217,245,953,-125,7,-18,18
88218,253,961,-120,8,-16,18
88219,255,957,-123,9,-14,20
88220,252,964,-131,9,-12,18
88221,253,963,-129,9,-11,19
88222,259,968,-130,9,-9,18
88223,258,970,-136,9,-9,20
88224,258,967,-123,10,-7,21
88225,259,970,-130,9,-5,21
88226,257,963,-131,10,-5,21
88227,260,967,-126,11,-9,21
88228,255,968,-126,11,-11,21
88229,255,965,-128,11,-14,20
88230,252,958,-125,11,-15,20
88231,252,962,-130,11,-17,19
88232,256,956,-128,10,-20,18
88233,244,956,-134,10,-19,18
88234,248,956,-130,10,-18,16
88235,253,957,-128,10,-18,15
88236,251,955,-125,10,-17,14
88237,254,954,-126,10,-18,13
88238,250,960,-130,9,-16,14
88239,250,952,-128,10,-14,13
88240,250,962,-130,11,-16,11
88241,255,955,-128,10,-16,11
88242,257,956,-126,8,-13,11
88243,262,964,-129,8,-14,10
88244,264,961,-129,9,-16,9
88245,256,963,-121,8,-18,9
88246,261,968,-122,7,-21,8
88247,262,963,-124,7,-21,9
88248,258,965,-126,6,-23,9
88249,257,964,-128,6,-25,9
88250,259,965,-131,7,-23,9
88251,263,961,-131,6,-23,8
88252,256,961,-137,7,-22,8
88253,261,959,-132,6,-21,8
88254,257,957,-133,5,-21,7
88255,256,955,-135,6,-21,6
88256,257,959,-132,7,-22,5
88257,255,953,-136,6,-24,4
88258,256,960,-131,5,-25,2
88259,256,955,-128,5,-27,2
88260,266,954,-129,5,-29,4
88261,257,956,-134,4,-29,3
88262,254,951,-133,3,-28,4
88263,255,951,-126,2,-28,2
88264,251,958,-131,2,-29,2
88265,253,953,-126,2,-30,1
88266,253,955,-131,3,-30,2
88267,259,958,-125,2,-30,2
88268,254,961,-128,1,-32,2
88269,257,964,-132,1,-33,2
88270,254,966,-128,0,-31,2
88271,260,965,-128,0,-32,4
88272,257,960,-128,0,-31,5
88273,258,962,-121,2,-29,5
88274,261,969,-129,3,-29,6
88275,257,963,-127,4,-30,7
88276,257,966,-133,4,-29,8
88277,256,962,-133,4,-28,9
88278,256,961,-127,4,-28,11
88279,252,965,-130,6,-26,12
88280,249,958,-129,7,-26,12
88281,251,959,-133,7,-24,12
88282,247,961,-136,7,-23,13
88283,255,958,-127,7,-23,14
88284,253,961,-133,7,-23,14
88285,244,952,-132,7,-21,16
88286,252,956,-124,7,-20,16
88287,244,959,-123,7,-20,16
88288,251,960,-129,7,-19,16
88289,251,961,-126,7,-18,16
88290,249,962,-126,6,-18,14
88291,248,956,-124,7,-18,16
88292,245,961,-123,7,-18,14
88293,247,960,-121,5,-18,14
88294,252,958,-123,6,-18,13
88295,251,966,-121,7,-18,13
88296,252,960,-125,7,-18,13
88297,249,959,-128,7,-18,15
88298,245,960,-127,8,-18,15
88299,247,957,-127,8,-18,14
88300,250,958,-126,8,-15,14
88301,248,957,-133,7,-14,16
88302,253,955,-127,8,-12,16
88303,245,959,-129,8,-11,16
88304,247,955,-130,8,-11,16
88305,249,952,-131,8,-11,16
88306,245,956,-124,8,-12,14
88307,248,956,-129,9,-11,15
88308,252,953,-129,8,-12,15
88309,248,957,-124,7,-13,14
88310,254,953,-131,7,-12,15
88311,260,959,-130,7,-13,14
88312,251,957,-130,7,-13,14
88313,254,960,-135,7,-14,14
88314,253,959,-141,7,-17,13
88315,255,963,-131,4,-19,12
88316,256,960,-133,4,-21,11
88317,264,964,-137,4,-23,11
88318,256,966,-136,4,-25,11
88319,251,963,-142,3,-28,10
88320,251,965,-131,5,-28,11
88321,258,968,-141,4,-28,11
88322,247,973,-132,4,-27,10
88323,251,963,-141,6,-26,9
88324,253,971,-134,7,-25,10
88325,247,964,-131,6,-24,9
88326,253,964,-134,6,-23,10
88327,251,962,-128,6,-22,9
88328,249,964,-130,4,-21,10
88329,250,967,-128,4,-20,10
88330,252,963,-132,3,-20,11
88331,250,958,-123,2,-21,10
88332,253,961,-132,2,-21,10
88333,249,957,-132,0,-23,9
88334,253,955,-126,0,-23,10
88335,254,957,-130,-2,-25,11
88336,248,955,-130,-2,-25,11
88337,245,949,-125,-1,-25,12
88338,245,949,-123,-2,-24,11
88339,245,954,-129,-2,-25,12
88340,250,952,-128,-2,-25,9
88341,250,953,-131,-2,-23,7
88342,242,960,-122,-3,-23,6
88343,248,959,-129,-3,-22,7
88344,248,952,-134,-2,-22,7
88345,251,958,-126,-4,-21,8
88346,250,956,-124,-3,-22,9
88347,257,960,-127,-3,-21,11
88348,251,961,-127,-3,-21,14
88349,254,956,-128,-3,-22,16
88350,252,965,-128,-2,-23,16
88351,250,965,-128,-1,-23,18
88352,253,963,-138,0,-22,18
88353,252,966,-135,0,-22,21
88354,250,969,-130,-1,-20,20
88355,253,969,-136,0,-19,21
88356,253,975,-130,1,-17,21
88357,250,974,-137,0,-16,23
88358,249,963,-139,0,-14,23
88359,253,962,-133,0,-14,24
88360,247,967,-132,0,-15,25
88361,250,956,-131,-1,-16,24
88362,251,967,-135,-2,-20,24
88363,249,960,-135,-1,-23,23
88364,246,958,-128,-3,-25,21
88365,244,959,-128,-4,-28,21
88366,245,959,-127,-3,-30,18
88367,243,957,-132,-4,-32,16
88368,242,960,-128,-4,-32,15
88369,245,960,-133,-4,-32,14
88370,242,957,-122,-4,-29,13
88371,243,958,-124,-4,-30,12
88372,246,959,-130,-4,-29,11
88373,251,966,-128,-4,-29,10
88374,242,967,-122,-4,-28,11
88375,246,963,-124,-3,-25,11
88376,244,970,-135,-4,-24,12
88377,250,962,-125,-2,-23,12
88378,248,975,-134,-2,-21,13
88379,245,968,-131,-1,-21,14
88380,248,963,-124,-2,-21,14
88381,249,966,-126,0,-21,14
88382,250,971,-127,-2,-21,16
88383,248,968,-126,0,-21,17
88384,247,963,-123,-1,-19,17
88385,244,967,-128,0,-19,19
88386,247,965,-123,0,-18,19
88387,245,965,-123,2,-17,21
88388,243,964,-127,2,-16,21
88389,242,965,-120,0,-14,22
88390,243,961,-124,2,-15,23
88391,243,964,-123,2,-15,23
88392,240,964,-124,1,-17,23
88393,248,964,-127,0,-18,23
88394,243,958,-126,0,-18,23
88395,243,964,-120,0,-20,23
88396,241,956,-118,0,-20,23
88397,244,962,-127,0,-21,23
88398,242,962,-125,-1,-19,22
88399,240,958,-122,0,-21,20
88400,242,965,-124,-1,-21,20
88401,238,967,-125,-1,-21,21
88402,243,971,-126,-2,-20,21
88403,248,965,-129,-2,-21,21
88404,252,965,-124,-1,-21,21
88405,251,972,-130,0,-19,23
88406,247,967,-130,0,-18,22
88407,246,970,-130,0,-17,23
88408,250,971,-131,1,-17,23
88409,247,976,-137,2,-16,23
88410,250,972,-129,2,-15,24
88411,252,969,-135,2,-15,23
88412,250,972,-129,2,-16,24
88413,250,969,-133,3,-16,25
88414,246,968,-129,3,-15,25
88415,245,957,-127,2,-14,24
88416,246,963,-122,2,-14,24
88417,251,958,-130,1,-16,23
88418,249,952,-122,2,-15,25
88419,247,959,-126,2,-15,25
88420,253,954,-128,2,-16,24
88421,250,955,-118,2,-17,24
88422,248,956,-121,1,-19,23
88423,247,957,-122,0,-21,22
88424,249,958,-123,0,-23,21
88425,254,954,-119,0,-24,21
88426,245,962,-122,-1,-25,22
88427,250,965,-128,-1,-28,22
88428,247,965,-123,-1,-28,21
88429,249,962,-122,0,-27,19
88430,255,964,-124,0,-25,20
88431,247,965,-120,0,-24,21
88432,251,962,-123,-1,-23,21
88433,242,963,-125,0,-21,23
88434,251,964,-125,0,-20,22
88435,250,961,-126,1,-19,24
88436,251,965,-123,1,-17,23
88437,245,967,-129,0,-16,25
88438,252,965,-129,2,-14,24
88439,251,962,-124,2,-14,24
88440,248,958,-129,4,-12,23
88441,256,958,-126,4,-11,23
88442,260,958,-120,4,-12,24
88443,252,965,-127,4,-14,23
88444,256,963,-125,4,-14,25
88445,254,960,-123,4,-14,25
88446,258,959,-122,4,-16,26
88447,252,967,-124,4,-18,25
88448,262,961,-118,4,-20,25
88449,259,962,-125,2,-22,26
88450,263,958,-125,1,-24,26
88451,258,955,-124,2,-25,27
88452,259,961,-121,2,-26,28
88453,254,965,-119,2,-28,28
88454,258,960,-123,2,-28,27
88455,255,960,-123,3,-29,27
88456,248,956,-124,3,-28,28
88457,250,962,-122,3,-28,29
88458,249,965,-117,4,-28,28
88459,248,961,-123,4,-27,28
88460,249,959,-124,4,-25,28
88461,247,971,-125,4,-23,28
88462,243,961,-131,4,-21,28
88463,244,965,-124,4,-20,28
88464,244,963,-125,5,-20,27
88465,244,969,-123,7,-18,28
88466,246,969,-118,7,-17,26
88467,249,964,-129,7,-16,25
88468,251,969,-127,7,-16,25
88469,253,969,-126,7,-18,25
88470,250,963,-121,6,-18,23
88471,247,965,-127,7,-19,22
88472,248,966,-124,6,-20,22
88473,249,964,-122,5,-21,20
88474,249,968,-123,3,-22,19
88475,243,963,-126,4,-25,21
88476,248,958,-131,4,-26,19
88477,243,958,-126,3,-25,16
88478,246,959,-123,2,-24,16
88479,245,958,-131,2,-23,16
88480,251,961,-122,3,-20,14
88481,249,961,-119,4,-20,13
88482,247,963,-121,4,-20,11
88483,251,969,-126,4,-21,11
88484,255,962,-124,5,-23,11
88485,249,962,-116,4,-24,12
88486,254,967,-113,4,-23,14
88487,252,964,-120,5,-24,16
88488,257,959,-119,4,-24,18
88489,253,959,-121,4,-23,18
88490,255,958,-124,4,-21,21
88491,258,955,-124,6,-20,21
88492,250,965,-123,6,-19,20
88493,256,959,-121,7,-19,20
88494,262,961,-124,6,-17,21
88495,259,960,-126,6,-14,21
88496,262,961,-129,5,-12,23
88497,263,966,-129,7,-11,23
88498,257,958,-133,7,-11,23
88499,260,967,-129,9,-11,23
88500,266,970,-129,9,-14,23
88501,256,964,-122,10,-17,23
88502,258,961,-126,9,-21,23
88503,256,960,-124,10,-24,23
88504,257,963,-130,10,-26,23
88505,259,964,-127,10,-29,22
88506,251,960,-128,9,-30,21
88507,253,962,-122,7,-30,20
88508,256,970,-130,8,-30,18
88509,252,958,-126,7,-29,18
88510,251,957,-126,7,-28,17
88511,255,961,-125,7,-27,17
88512,251,957,-122,5,-27,15
88513,249,962,-126,6,-27,16
88514,256,959,-120,6,-27,17
88515,254,964,-116,5,-27,16
88516,255,954,-117,5,-28,17
88517,252,960,-115,4,-28,16
88518,253,962,-119,4,-29,16
88519,251,960,-121,5,-31,17
88520,258,965,-120,4,-31,18
88521,256,963,-121,4,-32,18
88522,246,964,-122,4,-32,18
88523,251,962,-117,3,-31,19
88524,252,964,-122,3,-29,19
88525,252,960,-120,3,-28,20
88526,244,960,-130,4,-24,19
88527,249,964,-121,4,-23,19
88528,251,964,-127,4,-21,18
88529,254,956,-125,4,-20,18
88530,249,960,-127,4,-19,17
88531,249,957,-121,4,-18,18
88532,247,958,-127,5,-20,18
88533,248,963,-124,4,-19,18
88534,249,963,-130,5,-20,17
88535,244,959,-131,6,-20,16
88536,252,959,-129,4,-21,16
88537,247,963,-130,7,-18,16
88538,250,966,-126,7,-18,15
88539,249,963,-127,7,-18,14
88540,243,968,-124,7,-16,14
88541,250,962,-127,8,-16,14
88542,248,961,-134,7,-14,13
88543,245,966,-126,7,-13,15
88544,253,964,-127,9,-12,15
88545,250,958,-127,8,-11,14
88546,251,963,-124,9,-11,16
88547,253,963,-130,9,-11,15
88548,253,960,-129,9,-14,15
88549,254,958,-124,9,-12,14
88550,254,958,-127,9,-11,16
88551,255,958,-124,9,-11,16
88552,251,962,-125,9,-12,15
88553,253,959,-132,9,-12,15
88554,257,959,-122,9,-11,15
88555,256,962,-129,9,-11,16
88556,259,960,-122,9,-11,16
88557,252,957,-126,8,-12,14
88558,252,958,-129,8,-14,16
88559,251,956,-119,7,-13,16
88560,252,960,-126,7,-13,16
88561,253,955,-123,5,-14,16
88562,254,962,-126,6,-16,14
88563,253,961,-130,6,-16,15
88564,256,960,-125,6,-16,16
88565,255,962,-127,7,-18,16
88566,245,961,-124,6,-19,15
88567,256,961,-129,4,-20,17
88568,252,965,-117,4,-21,17
88569,255,956,-125,4,-19,16
88570,255,957,-123,2,-21,16
88571,254,961,-125,3,-20,16
88572,252,957,-130,3,-21,16
88573,252,957,-123,4,-20,16
88574,255,961,-130,2,-21,16
88575,254,956,-126,2,-19,16
88576,249,961,-123,3,-19,14
88577,253,962,-126,4,-18,15
88578,252,956,-125,4,-17,16
88579,249,956,-126,4,-18,14
88580,248,957,-126,3,-18,16
88581,247,958,-125,3,-17,16
88582,250,960,-132,4,-16,16
88583,255,955,-128,4,-16,16
88584,255,958,-127,4,-16,16
88585,253,963,-129,4,-17,16
88586,249,964,-132,4,-18,16
88587,248,963,-127,4,-18,16
88588,256,963,-128,4,-18,15
88589,252,966,-124,4,-19,16
88590,251,966,-131,4,-18,16
88591,253,966,-128,4,-18,16
88592,253,968,-126,4,-18,15
88593,249,966,-123,5,-18,15
88594,252,966,-121,4,-17,15
88595,251,962,-124,4,-18,15
88596,248,965,-118,4,-18,15
88597,250,962,-124,4,-19,15
88598,250,962,-128,4,-20,14
88599,248,959,-122,4,-19,14
88600,251,959,-127,4,-18,14
88601,244,961,-127,5,-17,15
88602,246,957,-127,4,-17,14
88603,257,958,-125,5,-16,15
88604,251,961,-122,6,-15,13
88605,254,962,-121,7,-13,14
88606,249,960,-127,5,-11,13
88607,251,966,-126,6,-13,14
88608,248,964,-125,7,-13,14
88609,249,963,-133,7,-11,14
88610,249,965,-121,6,-12,14
88611,250,962,-122,4,-14,14
88612,249,958,-126,4,-15,14
88613,253,965,-121,4,-16,14
88614,246,963,-129,4,-19,14
88615,252,963,-126,4,-21,14
88616,246,963,-121,4,-20,15
88617,246,965,-123,4,-19,16
88618,245,963,-127,4,-18,16
88619,254,962,-126,5,-16,16
88620,249,963,-125,7,-12,14
88621,243,964,-121,7,-11,14
88622,240,968,-121,7,-10,13
88623,248,969,-123,8,-11,14
88624,245,971,-121,8,-12,14
88625,248,967,-119,8,-14,14
88626,247,968,-120,9,-15,16
88627,249,963,-115,9,-16,18
88628,252,966,-117,9,-16,18
88629,244,961,-123,9,-17,18
88630,248,963,-122,8,-16,20
88631,238,962,-125,9,-14,22
88632,248,955,-123,8,-12,22
88633,247,961,-129,9,-9,23
88634,248,963,-130,11,-7,23
88635,252,962,-126,11,-4,23
88636,250,953,-133,11,-2,25
88637,254,958,-131,12,0,25
88638,250,955,-122,12,2,26
88639,254,960,-129,12,1,28
88640,255,965,-125,12,-2,26
88641,252,959,-126,12,-7,28
88642,257,960,-123,12,-9,27
88643,254,958,-128,11,-11,27
88644,249,963,-118,10,-16,25
88645,252,960,-130,11,-18,25
88646,251,963,-127,10,-18,25
88647,251,959,-125,10,-19,24
88648,243,963,-127,10,-18,23
88649,243,963,-129,8,-17,24
88650,243,962,-129,9,-16,24
88651,253,963,-127,9,-14,25
88652,255,961,-125,9,-14,25
88653,253,960,-130,9,-13,25
88654,249,966,-129,9,-11,25
88655,248,961,-128,9,-11,25
88656,245,961,-124,7,-12,25
88657,253,955,-130,9,-12,25
88658,252,958,-120,9,-11,25
88659,248,963,-125,9,-14,24
88660,256,955,-122,9,-16,23
88661,254,959,-122,8,-16,23
88662,249,967,-129,6,-16,24
88663,249,962,-125,6,-16,24
88664,256,957,-125,5,-16,23
88665,253,964,-133,5,-15,23
88666,251,967,-128,6,-11,23
88667,258,961,-132,6,-12,23
88668,261,957,-131,7,-11,24
88669,253,963,-134,7,-11,24
88670,254,962,-125,7,-14,25
88671,262,960,-127,8,-15,26
88672,253,963,-127,8,-15,27
88673,260,963,-135,7,-15,26
88674,252,960,-128,7,-16,25
88675,261,957,-126,7,-16,26
88676,255,958,-125,7,-16,25
88677,255,960,-129,8,-14,26
88678,256,965,-126,8,-15,26
88679,255,966,-123,6,-16,26
88680,252,961,-123,6,-15,26
88681,253,956,-127,5,-16,27
88682,251,959,-124,5,-14,27
88683,255,961,-126,6,-14,27
88684,251,962,-127,4,-14,28
88685,251,959,-127,4,-15,28
88686,252,956,-122,4,-15,27
88687,257,964,-128,4,-15,28
88688,258,957,-128,5,-14,28
88689,253,955,-126,4,-14,27
88690,257,956,-121,4,-14,28
88691,253,959,-123,4,-13,28
88692,258,957,-128,4,-12,27
88693,254,956,-129,4,-11,27
88694,250,963,-133,3,-13,27
88695,256,962,-131,4,-13,27
88696,257,961,-132,4,-13,26
88697,254,959,-127,3,-14,26
88698,252,960,-129,2,-11,25
88699,257,961,-130,2,-11,25
88700,251,961,-125,2,-10,25
88701,248,958,-124,2,-10,24
88702,255,961,-125,2,-10,23
88703,259,964,-124,2,-12,22
88704,259,961,-125,1,-14,21
88705,257,960,-129,2,-14,19
88706,260,957,-132,1,-15,19
88707,258,955,-133,1,-16,19
88708,258,953,-128,0,-16,19
88709,260,961,-127,0,-18,18
88710,258,957,-130,0,-18,19
88711,261,964,-125,0,-18,20
88712,262,961,-127,0,-18,21
88713,264,960,-127,0,-18,21
88714,259,958,-124,0,-18,18
88715,255,959,-125,0,-17,20
88716,258,960,-124,0,-18,19
88717,258,958,-121,0,-17,18
88718,254,958,-127,0,-16,20
88719,264,957,-125,-1,-16,20
88720,257,951,-123,0,-16,21
88721,261,961,-129,0,-17,21
88722,262,955,-118,0,-16,19
88723,262,960,-126,0,-18,21
88724,266,955,-122,0,-18,21
88725,256,959,-121,1,-18,20
88726,266,957,-122,0,-17,21
88727,256,961,-125,0,-20,21
88728,261,959,-124,0,-21,19
88729,252,965,-124,0,-22,21
88730,263,967,-126,0,-22,21
88731,264,967,-124,0,-23,19
88732,262,963,-129,0,-26,18
88733,260,962,-130,0,-28,18
88734,261,968,-129,-1,-27,18
88735,260,960,-128,-1,-28,20
88736,254,962,-123,0,-28,21
88737,257,964,-124,0,-25,19
88738,254,964,-122,0,-25,20
88739,255,962,-118,0,-25,23
88740,249,958,-125,0,-25,22
88741,253,959,-124,0,-23,21
88742,253,957,-122,0,-22,21
88743,259,957,-126,0,-22,21
88744,255,962,-119,0,-21,21
88745,255,959,-114,0,-21,22
88746,253,962,-117,1,-21,23
88747,260,955,-117,1,-21,23
88748,255,963,-117,2,-21,23
88749,255,959,-122,0,-21,23
88750,255,955,-123,0,-21,21
88751,250,961,-117,1,-21,22
88752,256,959,-124,1,-21,22
88753,257,959,-122,0,-22,21
88754,252,965,-121,0,-23,20
88755,254,961,-122,0,-25,20
88756,253,961,-123,0,-26,20
88757,247,959,-124,0,-25,21
88758,248,962,-121,0,-25,19
88759,254,964,-119,0,-23,20
88760,252,965,-118,2,-19,21
88761,248,966,-116,3,-17,20
88762,243,967,-121,4,-13,18
88763,248,963,-117,6,-11,18
88764,246,965,-119,6,-11,15
88765,247,970,-115,6,-11,14
88766,251,968,-123,6,-9,14
88767,251,966,-120,5,-13,14
88768,258,958,-118,4,-14,16
88769,263,963,-122,5,-16,16
88770,258,970,-118,4,-16,18
88771,255,956,-117,4,-18,18
88772,253,963,-119,4,-16,18
88773,257,967,-128,5,-15,20
88774,261,956,-120,6,-14,20
88775,256,958,-123,6,-13,21
88776,259,957,-121,7,-10,21
88777,258,960,-127,8,-9,21
88778,258,963,-128,7,-7,20
88779,268,961,-122,8,-7,22
88780,259,960,-128,7,-7,23
88781,257,960,-123,8,-8,23
88782,264,961,-126,9,-9,23
88783,267,959,-123,8,-11,23
88784,258,959,-123,8,-14,22
88785,263,961,-124,9,-16,23
88786,263,956,-126,9,-18,22
88787,256,958,-129,9,-21,21
88788,261,958,-128,9,-22,20
88789,254,966,-125,9,-21,21
88790,252,964,-124,7,-22,19
88791,250,959,-125,7,-23,19
88792,249,956,-125,5,-21,19
88793,252,959,-122,6,-20,19
88794,252,958,-130,7,-18,21
88795,250,964,-124,6,-17,21
88796,253,957,-132,6,-17,22
88797,255,955,-126,6,-16,20
88798,259,960,-128,6,-15,21
88799,257,960,-125,6,-14,20
88800,258,958,-120,6,-15,21
88801,256,963,-126,6,-15,21
88802,256,959,-121,5,-16,20
88803,256,958,-128,4,-18,19
88804,261,958,-126,4,-19,20
88805,260,955,-118,3,-19,21
88806,258,955,-134,2,-21,21
88807,259,961,-131,2,-21,21
88808,254,964,-121,2,-18,22
88809,261,957,-126,3,-18,21
88810,255,958,-131,2,-18,21
88811,260,961,-122,2,-18,21
88812,257,955,-124,3,-20,19
88813,251,958,-121,2,-22,21
88814,254,961,-127,3,-23,18
88815,263,960,-131,2,-25,18
88816,259,956,-121,2,-25,18
88817,263,960,-126,2,-26,18
88818,261,955,-122,2,-25,18
88819,255,960,-124,0,-27,18
88820,252,959,-130,2,-27,16
88821,253,958,-126,1,-26,17
88822,255,964,-125,0,-27,18
88823,254,966,-124,0,-25,18
88824,255,960,-130,0,-22,19
88825,254,961,-124,1,-21,18
88826,255,960,-131,1,-19,18
88827,252,963,-125,0,-20,18
88828,261,962,-120,1,-20,18
88829,256,962,-125,2,-18,20
88830,256,962,-121,2,-16,19
88831,264,961,-122,2,-16,19
88832,255,961,-132,4,-18,20
88833,265,958,-122,4,-18,20
88834,261,961,-121,4,-17,18
88835,266,966,-116,4,-19,17
88836,259,958,-120,3,-20,16
88837,258,958,-126,3,-21,17
88838,259,953,-114,2,-21,17
88839,254,958,-120,2,-21,17
88840,257,964,-121,2,-23,17
88841,261,960,-122,2,-23,18
88842,256,966,-118,2,-25,18
88843,255,958,-127,2,-26,19
88844,260,966,-118,2,-28,18
88845,259,959,-122,2,-28,19
88846,259,961,-123,1,-28,20
88847,262,967,-121,1,-29,20
88848,255,962,-122,2,-30,21
88849,255,963,-118,0,-29,21
88850,251,962,-121,0,-29,20
88851,251,962,-120,0,-30,21
88852,250,964,-120,0,-30,19
88853,255,962,-121,0,-30,19
88854,254,959,-126,0,-28,20
88855,254,967,-121,1,-28,20
88856,248,963,-121,2,-25,19
88857,250,958,-127,3,-25,20
88858,253,959,-125,4,-23,20
88859,252,958,-123,2,-21,21
88860,252,958,-125,2,-19,20
88861,248,965,-126,3,-18,20
88862,251,965,-123,2,-17,18
88863,257,961,-128,1,-16,17
88864,246,960,-128,1,-16,18
88865,247,955,-121,0,-17,17
88866,255,960,-118,1,-16,16
88867,255,962,-121,1,-15,18
88868,260,962,-124,2,-15,18
88869,255,962,-117,2,-16,17
88870,255,955,-129,3,-16,16
88871,254,962,-126,4,-18,18
88872,263,960,-125,4,-20,19
88873,264,957,-126,3,-20,18
88874,262,956,-120,4,-21,19
88875,265,962,-122,5,-21,19
88876,261,962,-125,4,-22,19
88877,262,964,-121,4,-22,21
88878,260,958,-125,4,-21,21
88879,262,959,-131,4,-22,21
88880,257,956,-119,4,-21,22
88881,255,964,-123,4,-20,21
88882,253,959,-123,4,-19,23
88883,259,963,-119,2,-16,23
88884,258,960,-124,4,-16,23
88885,254,959,-126,4,-16,21
88886,256,961,-119,4,-16,23
88887,255,964,-121,2,-16,23
88888,263,956,-128,2,-16,21
88889,256,962,-122,0,-18,20
88890,253,962,-120,0,-21,19
88891,258,959,-120,0,-24,19
88892,258,954,-122,0,-25,18
88893,255,960,-127,-1,-26,16
88894,260,960,-123,-1,-27,17
88895,254,962,-123,-2,-27,16
88896,261,959,-126,-2,-28,16
88897,257,961,-118,-1,-27,16
88898,257,960,-120,-1,-25,16
88899,255,963,-114,-2,-25,15
88900,256,964,-120,-1,-23,14
88901,260,971,-121,0,-21,15
88902,250,970,-122,0,-21,13
88903,254,968,-126,0,-19,11
88904,254,971,-123,0,-18,10
88905,254,965,-118,1,-20,10
88906,254,964,-119,2,-20,9
88907,258,963,-119,1,-21,10
88908,257,964,-118,2,-24,11
88909,254,965,-115,3,-26,13
88910,258,965,-120,2,-25,14
88911,261,961,-121,3,-26,16
88912,252,959,-117,4,-27,17
88913,252,963,-119,3,-28,18
88914,254,960,-121,3,-27,18
88915,256,958,-120,3,-24,18
88916,255,958,-117,4,-22,18
88917,251,959,-122,4,-20,19
88918,255,959,-126,4,-17,18
88919,261,964,-121,5,-16,19
88920,256,962,-124,5,-17,18
88921,262,961,-122,5,-16,18
88922,259,959,-127,5,-14,19
88923,260,955,-123,4,-16,20
88924,256,958,-120,6,-16,20
88925,261,958,-119,6,-18,19
88926,255,958,-121,7,-21,19
88927,264,965,-118,6,-22,18
88928,257,964,-120,6,-23,18
88929,260,962,-120,7,-24,17
88930,258,964,-120,5,-24,18
88931,261,957,-123,4,-23,19
88932,253,962,-121,4,-23,18
88933,252,961,-118,3,-21,18
88934,260,964,-115,4,-21,18
88935,254,964,-119,4,-22,18
88936,258,963,-119,4,-23,18
88937,255,964,-116,4,-23,18
88938,259,964,-122,2,-22,19
88939,262,959,-118,4,-22,19
88940,255,959,-116,4,-22,19
88941,262,956,-113,5,-23,18
88942,256,962,-125,5,-23,18
88943,259,955,-116,5,-23,20
88944,263,962,-114,5,-22,20
88945,256,959,-121,5,-22,21
88946,261,962,-123,3,-21,20
88947,254,956,-119,2,-21,19
88948,258,958,-119,1,-21,19
88949,252,959,-113,2,-21,18
88950,255,963,-125,0,-20,14
88951,257,966,-123,0,-21,14
88952,260,962,-124,2,-22,12
88953,260,964,-116,2,-25,14
88954,261,964,-122,1,-25,12
88955,255,962,-125,1,-25,12
88956,264,961,-125,1,-27,11
88957,252,963,-126,2,-28,11
88958,249,960,-123,2,-28,10
88959,250,960,-123,2,-26,10
88960,258,962,-122,2,-25,10
88961,257,960,-120,1,-26,10
88962,249,957,-126,1,-25,10
88963,259,959,-119,0,-24,12
88964,260,964,-123,0,-23,11
88965,253,959,-122,0,-24,12
88966,256,958,-126,1,-22,12
88967,256,956,-118,0,-22,12
88968,255,963,-125,0,-21,13
88969,258,959,-120,1,-20,14
88970,258,960,-119,2,-18,14
88971,255,961,-121,2,-18,15
88972,257,962,-121,2,-20,16
88973,253,962,-119,3,-21,16
88974,256,961,-122,2,-21,15
88975,262,960,-124,2,-23,16
88976,257,956,-117,4,-24,16
88977,261,957,-118,2,-23,18
88978,255,962,-115,2,-23,18
88979,257,959,-121,3,-25,18
88980,257,958,-122,2,-24,18
88981,251,957,-118,2,-23,20
88982,257,956,-119,3,-23,20
88983,251,964,-122,2,-24,20
88984,258,960,-116,2,-24,20
88985,250,959,-121,2,-23,20
88986,251,961,-113,2,-22,19
88987,253,960,-117,2,-23,20
88988,256,958,-120,1,-21,21
88989,253,958,-120,2,-22,20
88990,251,959,-116,1,-21,20
88991,247,958,-116,2,-20,21
88992,257,960,-115,2,-21,21
88993,255,962,-123,2,-21,20
88994,250,961,-126,2,-21,19
88995,255,967,-123,1,-23,19
88996,255,959,-121,1,-23,19
88997,254,965,-130,2,-22,19
88998,252,961,-122,2,-22,19
88999,258,965,-122,3,-22,18
89000,254,960,-122,3,-23,18
89001,253,961,-121,3,-23,18
89002,252,968,-116,4,-23,18
89003,252,967,-125,4,-24,18
89004,255,966,-120,4,-24,18
89005,254,970,-121,4,-25,19
89006,252,962,-123,4,-24,18
89007,252,959,-120,4,-25,18
89008,249,965,-120,3,-24,17
89009,251,967,-117,2,-23,16
89010,254,961,-117,4,-22,18
89011,254,960,-120,3,-23,18
89012,249,960,-118,3,-22,18
89013,255,960,-117,4,-22,18
89014,257,959,-118,2,-20,18
89015,252,961,-119,3,-19,18
89016,254,962,-121,3,-20,19
89017,261,958,-115,4,-18,19
89018,255,960,-114,4,-16,18
89019,257,969,-114,6,-16,20
89020,256,960,-113,4,-16,20
89021,254,959,-117,4,-18,22
89022,256,964,-124,4,-16,21
89023,256,959,-119,4,-17,21
89024,255,962,-115,4,-18,19
89025,253,961,-112,4,-19,19
89026,254,959,-120,4,-19,20
89027,255,960,-128,3,-18,20
89028,253,956,-114,3,-18,21
89029,256,960,-122,2,-17,21
89030,254,958,-122,2,-16,21
89031,254,958,-121,2,-17,22
89032,257,960,-121,2,-16,21
89033,255,962,-121,2,-14,21
89034,257,962,-115,3,-13,21
89035,253,963,-121,3,-11,21
89036,256,960,-121,3,-9,21
89037,259,968,-115,4,-8,21
89038,259,959,-117,4,-7,20
89039,249,966,-121,4,-9,18
89040,249,963,-122,5,-9,18
89041,249,961,-117,4,-10,18
89042,257,966,-121,4,-11,18
89043,255,962,-112,4,-13,19
89044,255,963,-110,4,-14,21
89045,258,963,-118,4,-14,22
89046,258,960,-124,4,-14,21
89047,259,959,-115,4,-14,22
89048,253,958,-126,5,-14,23
89049,257,961,-118,4,-13,23
89050,259,964,-127,4,-11,22
89051,259,962,-120,4,-11,22
89052,261,960,-120,5,-11,22
89053,260,963,-119,5,-10,23
89054,259,958,-120,6,-10,22
89055,265,956,-121,7,-9,23
89056,263,961,-120,7,-11,23
89057,262,959,-120,7,-11,21
89058,264,959,-123,6,-13,22
89059,264,959,-117,5,-16,21
89060,265,963,-121,5,-18,21
89061,259,965,-117,4,-20,19
89062,260,959,-118,4,-21,18
89063,263,962,-117,3,-22,18
89064,263,962,-119,3,-24,16
89065,261,964,-124,2,-24,17
89066,264,963,-121,0,-25,16
89067,260,967,-120,1,-25,16
89068,253,968,-119,0,-25,16
89069,254,969,-122,1,-25,17
89070,260,969,-119,0,-25,16
89071,256,967,-120,0,-26,16
89072,257,963,-115,0,-28,15
89073,260,959,-118,0,-30,14
89074,259,961,-120,0,-29,15
89075,261,952,-125,-2,-30,14
89076,263,959,-121,-2,-32,14
89077,255,958,-120,-1,-35,14
89078,252,963,-122,-1,-35,13
89079,251,957,-119,-2,-35,14
89080,257,962,-121,-2,-34,14
89081,261,959,-123,-1,-35,14
89082,250,960,-119,0,-34,15
89083,251,961,-120,0,-30,14
89084,256,959,-120,1,-29,14
89085,250,963,-124,3,-28,15
89086,252,968,-121,3,-26,15
89087,255,962,-120,5,-25,14
89088,251,969,-118,7,-24,14
89089,252,967,-122,7,-23,15
89090,248,971,-114,7,-22,16
89091,255,966,-120,7,-21,16
89092,253,967,-121,8,-18,16
89093,257,964,-121,7,-17,16
89094,249,966,-119,7,-15,17
89095,255,964,-111,8,-14,17
89096,253,963,-121,7,-11,18
89097,252,967,-119,8,-11,18
89098,252,957,-119,8,-9,18
89099,253,962,-115,8,-7,19
89100,253,960,-112,7,-6,18
89101,255,960,-115,7,-4,18
89102,256,954,-113,7,-4,20
89103,255,957,-109,6,-4,20
89104,257,959,-117,7,-3,20
89105,263,954,-120,7,-4,19
89106,263,956,-119,7,-6,20
89107,258,959,-118,7,-9,20
89108,263,954,-120,6,-10,20
89109,260,958,-116,4,-11,21
89110,261,958,-117,4,-13,20
89111,258,955,-119,4,-14,20
89112,260,960,-115,4,-17,20
89113,260,963,-118,3,-19,19
89114,261,962,-119,2,-18,20
89115,255,960,-116,2,-21,18
89116,260,959,-117,2,-21,18
89117,259,967,-120,2,-21,18
89118,255,964,-119,1,-21,18
89119,256,969,-119,2,-21,17
89120,253,967,-118,2,-21,17
89121,257,962,-118,3,-21,18
89122,251,965,-124,4,-19,17
89123,251,965,-121,4,-19,17
89124,256,969,-121,3,-19,16
89125,248,960,-119,4,-18,16
89126,251,961,-118,4,-18,15
89127,252,963,-118,4,-17,15
89128,257,966,-120,4,-16,14
89129,255,969,-117,3,-17,14
89130,253,965,-121,4,-17,12
89131,260,968,-118,5,-17,12
89132,256,957,-115,5,-17,11
89133,253,963,-121,6,-18,11
89134,253,963,-118,6,-18,11
89135,255,959,-118,6,-18,11
89136,260,960,-121,7,-19,10
89137,257,965,-112,6,-20,10
89138,259,964,-118,6,-20,12
89139,255,964,-113,6,-22,12
89140,258,963,-114,6,-23,11
89141,257,967,-112,5,-23,11
89142,255,962,-113,5,-23,12
89143,258,961,-112,7,-23,11
89144,259,961,-114,7,-25,11
89145,248,969,-116,7,-25,11
89146,258,969,-123,7,-23,11
89147,257,964,-117,7,-25,12
89148,262,961,-120,7,-24,14
89149,260,961,-113,8,-25,14
89150,256,965,-125,9,-25,14
89151,259,958,-119,7,-25,15
89152,260,962,-117,9,-24,16
89153,260,960,-116,9,-23,16
89154,256,960,-121,9,-22,14
89155,258,957,-122,11,-23,15
89156,260,963,-115,11,-25,16
89157,259,956,-113,10,-25,16
89158,261,962,-118,9,-25,16
89159,255,960,-114,9,-26,17
89160,259,963,-114,9,-28,17
89161,255,957,-120,8,-28,18
89162,254,961,-116,9,-30,18
89163,255,957,-116,9,-32,17
89164,255,960,-119,8,-34,16
89165,254,959,-118,9,-35,17
89166,251,964,-119,7,-35,18
89167,252,967,-116,8,-35,18
89168,247,958,-122,7,-35,19
89169,250,963,-112,8,-34,19
89170,247,961,-121,7,-32,20
89171,246,966,-122,7,-31,18
89172,241,958,-122,7,-30,20
89173,245,964,-118,9,-27,18
89174,245,963,-115,10,-25,18
89175,249,966,-119,9,-25,16
89176,245,966,-117,11,-23,16
89177,246,962,-119,11,-23,16
89178,248,969,-118,11,-22,17
89179,245,964,-120,11,-21,18
89180,242,967,-113,11,-18,19
89181,250,963,-120,11,-16,18
89182,247,962,-118,11,-15,19
89183,248,961,-115,11,-14,18
89184,249,959,-126,11,-13,18
89185,256,964,-118,11,-12,20
89186,254,962,-125,11,-8,20
89187,254,960,-127,11,-7,19
89188,255,965,-130,11,-6,19
89189,251,961,-126,11,-4,18
89190,258,959,-133,11,-2,18
89191,259,960,-129,11,-4,19
89192,258,958,-125,13,-4,20
89193,260,958,-127,13,-6,20
89194,263,962,-129,14,-9,20
89195,259,961,-122,13,-11,18
89196,259,965,-126,14,-14,18
89197,262,960,-125,15,-16,18
89198,264,962,-122,14,-18,18
89199,260,959,-119,15,-20,17
89200,264,955,-120,15,-21,16
89201,264,960,-119,14,-21,16
89202,257,960,-116,11,-21,16
89203,260,962,-124,11,-21,15
89204,257,958,-121,9,-21,16
89205,258,964,-123,10,-21,16
89206,262,964,-120,9,-20,15
89207,256,962,-121,9,-21,17
89208,259,960,-121,9,-21,18
89209,254,965,-123,8,-21,18
89210,260,962,-119,7,-21,17
89211,258,966,-113,7,-22,16
89212,260,960,-118,8,-23,16
89213,252,962,-115,9,-23,16
89214,252,959,-122,6,-25,18
89215,256,960,-117,6,-26,17
89216,254,960,-121,5,-28,18
89217,252,955,-119,4,-27,17
89218,258,962,-118,3,-25,17
89219,252,958,-123,3,-25,18
89220,258,960,-120,2,-24,17
89221,256,958,-118,2,-23,16
89222,251,962,-114,3,-23,16
89223,251,960,-119,4,-23,16
89224,247,960,-124,5,-23,16
89225,249,962,-123,5,-22,16
89226,253,962,-120,4,-23,14
89227,256,970,-131,4,-24,14
89228,253,960,-127,5,-25,14
89229,250,963,-121,5,-25,14
89230,253,959,-129,6,-25,12
89231,255,961,-124,5,-25,12
89232,258,958,-121,6,-24,12
89233,252,960,-125,6,-23,11
89234,249,963,-122,6,-21,11
89235,249,961,-125,7,-21,11
89236,257,960,-126,8,-19,11
89237,255,959,-125,7,-18,12
89238,254,964,-123,7,-16,11
89239,252,962,-120,7,-16,12
89240,252,961,-122,7,-16,13
89241,260,962,-129,9,-16,15
89242,248,960,-119,9,-14,16
89243,254,957,-122,9,-14,16
89244,256,965,-121,10,-14,16
89245,259,952,-119,9,-14,17
89246,257,960,-124,9,-14,17
89247,261,960,-113,9,-15,18
89248,259,967,-121,9,-16,18
89249,258,963,-118,8,-18,17
89250,258,963,-122,7,-19,17
89251,260,963,-121,7,-21,17
89252,253,957,-119,7,-23,18
89253,255,960,-123,6,-23,18
89254,254,959,-124,6,-24,18
89255,253,961,-124,5,-24,17
89256,247,967,-125,5,-25,16
89257,243,961,-116,6,-25,16
89258,255,965,-120,4,-25,17
89259,251,963,-122,4,-24,18
89260,256,962,-117,4,-25,18
89261,252,961,-122,6,-26,18
89262,254,962,-121,5,-24,18
89263,252,958,-122,5,-24,19
89264,254,955,-121,7,-23,19
89265,250,967,-122,6,-21,18
89266,253,966,-123,7,-21,19
89267,249,967,-128,7,-20,20
89268,250,969,-122,7,-19,20
89269,249,964,-123,6,-18,19
89270,255,965,-121,6,-18,18
89271,250,964,-119,7,-18,16
89272,252,967,-119,6,-18,18
89273,250,960,-119,6,-18,18
89274,251,961,-124,7,-19,16
89275,257,966,-120,7,-21,16
89276,257,960,-124,7,-20,18
89277,254,964,-122,7,-19,17
89278,249,960,-124,7,-18,18
89279,252,961,-126,7,-18,18
89280,253,965,-122,9,-19,18
89281,254,962,-128,9,-20,19
89282,254,964,-122,9,-20,20
89283,251,957,-126,9,-21,21
89284,256,957,-128,9,-22,21
89285,254,957,-121,9,-22,21
89286,255,960,-121,9,-22,21
89287,256,957,-125,9,-23,21
89288,254,959,-116,9,-23,21
89289,258,961,-113,8,-23,21
89290,249,958,-114,8,-24,21
89291,246,963,-118,9,-23,22
89292,246,957,-118,10,-23,21
89293,249,958,-122,11,-23,20
89294,250,955,-126,10,-21,21
89295,250,962,-122,10,-21,22
89296,246,955,-117,10,-21,22
89297,249,959,-125,10,-18,22
89298,254,955,-122,11,-16,23
89299,255,963,-117,11,-16,24
89300,251,965,-117,11,-14,24
89301,253,965,-123,12,-14,24
89302,249,958,-120,12,-12,25
89303,254,960,-127,12,-12,25
89304,250,960,-120,13,-11,25
89305,249,960,-122,13,-12,24
89306,252,957,-123,11,-14,23
89307,261,957,-122,9,-15,23
89308,254,957,-126,9,-16,22
89309,248,957,-123,9,-17,21
89310,248,961,-129,7,-18,21
89311,245,960,-123,6,-20,19
89312,254,955,-131,6,-21,18
89313,254,958,-125,6,-21,18
89314,247,951,-124,5,-20,18
89315,248,956,-127,4,-18,16
89316,253,959,-127,5,-18,16
89317,254,962,-125,6,-18,15
89318,252,961,-124,5,-18,14
89319,256,965,-124,3,-18,12
89320,257,967,-127,4,-19,11
89321,258,967,-121,5,-19,12
89322,253,966,-121,4,-21,14
89323,254,965,-120,4,-21,16
89324,258,963,-121,4,-21,17
89325,247,958,-121,5,-21,19
89326,262,960,-124,5,-21,20
89327,257,964,-127,6,-19,21
89328,263,963,-124,5,-18,20
89329,255,961,-127,7,-16,21
89330,258,961,-127,7,-16,21
89331,261,965,-129,7,-14,21
89332,266,959,-128,6,-10,21
89333,264,964,-129,7,-8,23
89334,262,963,-128,7,-5,24
89335,257,960,-132,7,-7,24
89336,260,964,-127,7,-8,24
89337,259,964,-130,7,-10,24
89338,263,963,-131,7,-13,23
89339,262,964,-128,8,-17,23
89340,255,958,-123,7,-21,21
89341,264,963,-131,6,-25,21
89342,263,961,-125,5,-28,19
89343,259,963,-122,5,-30,18
89344,255,962,-121,5,-32,18
89345,257,962,-130,5,-32,17
89346,247,956,-124,4,-33,16
89347,250,962,-123,3,-32,16
89348,251,965,-123,4,-31,16
89349,252,963,-128,4,-30,17
89350,248,955,-122,4,-28,16
89351,254,961,-123,3,-30,18
89352,250,959,-122,3,-29,18
89353,248,962,-124,3,-28,18
89354,247,964,-115,4,-28,18
89355,251,964,-120,4,-28,19
89356,255,965,-117,3,-27,18
89357,249,963,-121,3,-27,18
89358,251,954,-116,2,-28,18
89359,249,964,-116,2,-28,18
89360,254,964,-119,2,-28,18
89361,253,960,-118,2,-28,18
89362,251,955,-122,2,-27,18
89363,254,961,-119,2,-26,16
89364,252,962,-116,3,-23,17
89365,253,958,-123,2,-21,19
89366,252,959,-122,2,-21,19
89367,250,961,-120,3,-21,19
89368,247,963,-123,4,-21,20
89369,254,962,-118,4,-21,21
89370,250,960,-126,4,-23,21
89371,251,962,-123,4,-23,22
89372,255,956,-121,4,-23,22
89373,249,959,-126,7,-23,22
89374,250,966,-121,7,-23,21
89375,248,958,-119,7,-23,20
89376,250,961,-116,8,-24,18
89377,256,964,-117,8,-23,18
89378,258,957,-119,9,-21,18
89379,251,961,-116,9,-22,19
89380,247,962,-123,8,-21,19
89381,255,965,-121,8,-20,20
89382,248,963,-123,8,-18,21
89383,251,964,-124,9,-16,22
89384,248,962,-121,9,-16,20
89385,254,957,-122,9,-15,22
89386,248,965,-125,9,-14,21
89387,251,963,-126,9,-16,21
89388,256,958,-121,9,-18,21
89389,256,960,-121,9,-17,21
89390,260,962,-122,9,-17,21
89391,260,958,-124,9,-16,21
89392,259,959,-131,9,-16,21
89393,251,961,-129,9,-17,21
89394,257,960,-121,8,-18,22
89395,264,957,-124,9,-22,22
89396,256,962,-126,7,-21,21
89397,257,960,-122,7,-21,20
89398,258,964,-124,6,-21,21
89399,254,962,-130,5,-20,21
89400,263,964,-132,5,-21,20
89401,252,961,-129,6,-23,20
89402,256,961,-127,5,-21,21
89403,259,969,-130,6,-21,20
89404,254,960,-129,7,-21,20
89405,261,958,-121,6,-21,21
89406,250,960,-125,6,-21,20
89407,254,963,-127,5,-21,21
89408,255,968,-123,5,-20,21
89409,256,958,-122,5,-21,21
89410,256,960,-123,3,-21,21
89411,260,962,-123,4,-23,20
89412,258,960,-125,4,-22,19
89413,258,953,-126,4,-22,20
89414,255,958,-124,3,-21,19
89415,257,958,-127,3,-21,18
89416,252,954,-128,3,-23,18
89417,253,956,-128,2,-22,18
89418,255,962,-124,2,-23,19
89419,258,958,-125,2,-23,18
89420,252,957,-123,1,-21,18
89421,257,961,-122,1,-22,19
89422,252,956,-125,1,-23,20
89423,256,965,-130,2,-22,20
89424,253,957,-123,3,-23,21
89425,256,961,-128,3,-23,20
89426,252,960,-124,2,-21,20
89427,253,962,-128,2,-21,21
89428,256,956,-123,1,-21,21
89429,249,958,-123,0,-22,22
89430,250,957,-131,1,-22,22
89431,255,961,-126,2,-21,22
89432,255,966,-127,1,-21,23
89433,254,957,-123,0,-21,21
89434,249,960,-119,0,-19,21
89435,251,965,-123,0,-18,22
89436,252,963,-117,2,-17,22
89437,250,968,-125,2,-16,21
89438,255,962,-122,3,-16,21
89439,251,963,-121,1,-15,21
89440,259,962,-120,1,-15,22
89441,251,964,-117,0,-15,21
89442,260,962,-124,1,-15,21
89443,258,965,-124,1,-18,21
89444,255,959,-123,0,-21,22
89445,253,958,-126,0,-20,21
89446,259,965,-121,0,-20,21
89447,255,957,-126,1,-21,21
89448,256,959,-127,0,-21,21
89449,249,963,-125,0,-21,19
89450,252,961,-129,0,-19,18
89451,253,962,-122,1,-19,18
89452,250,963,-121,2,-17,18
89453,262,961,-127,2,-18,18
89454,254,960,-124,1,-17,20
89455,256,954,-132,1,-16,18
89456,255,964,-122,2,-15,18
89457,259,964,-120,2,-14,19
89458,258,966,-122,2,-14,19
89459,258,962,-128,2,-15,18
89460,247,955,-123,1,-14,18
89461,259,964,-125,1,-15,18
89462,255,961,-125,0,-17,17
89463,254,958,-121,0,-18,16
89464,256,959,-121,0,-18,16
89465,256,961,-122,0,-18,18
89466,257,959,-119,-2,-21,16
89467,248,957,-119,-3,-21,15
89468,249,958,-123,-2,-21,14
89469,249,958,-116,-2,-20,13
89470,250,956,-122,0,-18,11
89471,252,957,-119,0,-18,9
89472,245,958,-121,0,-18,9
89473,255,964,-116,1,-19,8
89474,252,965,-121,1,-21,7
89475,257,962,-116,1,-23,9
89476,253,967,-125,1,-23,10
89477,261,965,-115,2,-23,11
89478,257,965,-115,1,-22,14
89479,261,966,-122,2,-23,16
89480,258,967,-114,2,-21,16
89481,258,959,-118,2,-21,18
89482,256,963,-115,2,-18,19
89483,256,959,-120,3,-17,18
89484,252,961,-122,4,-16,19
89485,260,962,-119,4,-14,19
89486,262,956,-121,5,-12,21
89487,259,961,-125,5,-9,22
89488,269,957,-124,7,-8,23
89489,259,963,-118,6,-7,22
89490,262,956,-118,7,-10,22
89491,261,957,-124,7,-13,21
89492,261,964,-118,9,-16,23
89493,260,959,-121,7,-19,22
89494,258,964,-123,7,-20,22
89495,260,965,-119,7,-23,22
89496,257,959,-119,7,-25,21
89497,249,964,-120,6,-26,21
89498,252,960,-124,6,-24,20
89499,251,958,-128,5,-25,21
89500,251,961,-119,5,-25,21
89501,250,960,-117,5,-24,21
89502,253,963,-114,4,-23,19
89503,252,958,-121,4,-24,20
89504,263,960,-122,5,-23,18
89505,254,963,-122,5,-22,20
89506,250,968,-114,5,-20,19
89507,248,966,-121,6,-21,19
89508,249,962,-119,7,-21,19
89509,255,964,-120,7,-21,20
89510,255,962,-119,7,-18,19
89511,246,965,-118,9,-18,19
89512,246,964,-119,8,-16,20
89513,253,957,-124,7,-15,20
89514,247,964,-118,7,-15,20
89515,251,958,-126,4,-15,19
89516,256,966,-119,6,-15,19
89517,261,962,-122,7,-14,20
89518,254,963,-126,6,-12,21
89519,253,957,-129,7,-12,21
89520,256,961,-123,7,-14,21
89521,252,964,-128,8,-14,20
89522,259,959,-126,7,-15,19
89523,259,963,-116,7,-17,19
89524,254,964,-130,9,-18,21
89525,259,961,-124,7,-18,21
89526,256,963,-121,7,-19,18
89527,254,962,-126,8,-22,18
89528,255,960,-125,7,-23,18
89529,256,960,-123,8,-23,18
89530,255,959,-123,7,-23,19
89531,257,965,-124,7,-21,18
89532,256,962,-124,7,-21,17
89533,257,963,-121,7,-21,19
89534,259,961,-120,7,-19,18
89535,251,965,-117,7,-17,18
89536,257,963,-118,8,-16,19
89537,254,963,-127,8,-16,20
89538,256,964,-124,7,-15,21
89539,257,961,-121,8,-15,21
89540,257,959,-121,7,-13,20
89541,253,961,-117,7,-13,21
89542,258,958,-126,8,-14,21
89543,258,962,-126,8,-15,21
89544,257,958,-124,8,-18,20
89545,264,962,-123,9,-18,19
89546,263,966,-125,8,-18,21
89547,259,956,-124,7,-18,21
89548,262,967,-121,6,-20,18
89549,258,964,-123,6,-20,20
89550,252,957,-124,6,-21,21
89551,257,957,-126,5,-22,21
89552,267,954,-124,6,-23,20
89553,263,960,-129,4,-22,19
89554,261,962,-120,4,-21,19
89555,253,955,-121,4,-21,18
89556,256,960,-116,4,-22,19
89557,257,963,-118,4,-22,20
89558,252,961,-121,4,-22,18
89559,255,966,-123,4,-23,17
89560,252,962,-117,4,-25,17
89561,256,960,-120,3,-24,17
89562,250,962,-121,3,-24,18
89563,250,965,-126,3,-23,18
89564,250,962,-125,4,-21,19
89565,252,960,-121,3,-18,19
89566,258,965,-124,3,-18,19
89567,248,962,-126,4,-18,21
89568,253,965,-118,3,-16,20
89569,250,955,-118,2,-15,20
89570,249,961,-125,3,-13,21
89571,249,963,-121,4,-13,22
89572,249,962,-121,4,-13,22
89573,256,959,-122,5,-14,20
89574,257,962,-117,4,-14,18
89575,261,960,-124,5,-14,20
89576,252,966,-120,4,-14,19
89577,253,962,-122,6,-15,18
89578,256,965,-120,5,-16,18
89579,260,961,-124,6,-15,18
89580,255,958,-120,7,-14,18
89581,253,963,-124,7,-14,19
89582,255,962,-123,5,-11,19
89583,255,962,-122,7,-12,18
89584,257,958,-123,7,-11,18
89585,255,963,-123,7,-11,19
89586,258,960,-124,7,-11,18
89587,251,959,-131,8,-11,18
89588,260,960,-125,7,-12,18
89589,263,963,-116,7,-11,18
89590,255,966,-117,7,-11,19
89591,259,963,-121,7,-13,18
89592,256,957,-115,9,-13,18
89593,259,964,-130,9,-15,19
89594,255,959,-128,7,-15,18
89595,253,966,-123,8,-14,17
89596,260,961,-121,8,-16,17
89597,262,959,-114,7,-16,18
89598,259,958,-121,7,-18,18
89599,254,966,-119,7,-18,18
89600,261,962,-122,7,-18,19
89601,255,961,-121,7,-19,19
89602,253,960,-120,7,-20,19
89603,261,960,-120,5,-23,19
89604,258,961,-118,5,-26,20
89605,259,964,-119,5,-26,18
89606,254,958,-123,4,-27,18
89607,255,963,-116,4,-27,18
89608,251,957,-119,4,-26,18
89609,254,966,-125,4,-25,19
89610,248,963,-126,4,-25,18
89611,256,962,-119,4,-23,18
89612,255,963,-126,5,-24,19
89613,256,964,-119,6,-21,21
89614,251,964,-121,6,-20,19
89615,251,957,-125,6,-20,20
89616,257,957,-125,7,-18,21
89617,257,963,-125,7,-19,21
89618,251,964,-122,7,-18,21
89619,263,960,-129,8,-20,21
89620,259,960,-123,7,-20,23
89621,257,958,-117,7,-20,23
89622,251,954,-121,7,-21,23
89623,252,955,-120,7,-21,23
89624,258,959,-121,5,-21,22
89625,254,957,-121,7,-19,23
89626,249,959,-118,7,-17,23
89627,253,963,-120,6,-15,23
89628,255,959,-123,6,-14,23
89629,254,960,-122,5,-12,22
89630,249,959,-119,6,-11,20
89631,249,963,-123,8,-9,18
89632,253,961,-116,9,-9,18
89633,250,966,-122,9,-10,17
89634,248,966,-119,9,-11,18
89635,258,969,-115,11,-15,19
89636,262,971,-115,11,-16,21
89637,259,966,-120,11,-15,23
89638,254,963,-114,11,-15,24
89639,260,962,-120,11,-14,24
89640,268,963,-124,11,-14,24
89641,262,960,-125,11,-12,25
89642,261,964,-131,11,-9,25
89643,260,960,-124,11,-7,24
89644,261,961,-123,11,-4,24
89645,260,960,-130,11,-1,24
89646,260,954,-124,11,0,24
89647,253,958,-126,12,1,25
89648,268,962,-121,12,2,25
89649,261,959,-125,13,2,25
89650,261,956,-122,13,0,25
89651,263,960,-129,12,-2,25
89652,264,957,-122,11,-6,23
89653,262,964,-125,11,-11,23
89654,260,961,-128,11,-15,23
89655,263,959,-121,10,-18,21
89656,260,961,-126,9,-21,21
89657,258,955,-123,9,-22,21
89658,263,960,-125,8,-23,20
89659,259,955,-130,7,-23,18
89660,255,963,-132,7,-22,17
89661,262,959,-125,4,-21,17
89662,260,957,-124,5,-21,16
89663,253,959,-130,6,-22,17
89664,262,963,-125,7,-19,16
89665,261,968,-125,7,-20,16
89666,260,958,-127,4,-19,16
89667,263,959,-123,7,-19,16
89668,261,956,-125,7,-20,16
89669,253,960,-127,7,-21,18
89670,256,963,-121,7,-19,16
89671,263,955,-124,7,-20,16
89672,259,966,-123,5,-21,17
89673,259,964,-128,5,-20,16
89674,263,955,-124,4,-20,16
89675,263,960,-129,4,-19,16
89676,260,958,-127,3,-17,17
89677,262,961,-124,4,-16,18
89678,260,960,-130,4,-16,16
89679,263,957,-127,4,-16,16
89680,259,961,-128,4,-16,16
89681,264,961,-130,4,-16,16
89682,262,959,-127,5,-18,16
89683,260,961,-119,6,-19,16
89684,257,965,-126,5,-21,16
89685,258,965,-130,5,-22,16
89686,263,962,-125,5,-23,16
89687,258,963,-130,3,-21,15
89688,251,962,-124,4,-22,16
89689,256,959,-126,4,-21,15
89690,249,961,-122,4,-21,16
89691,254,960,-123,4,-22,16
89692,252,962,-122,3,-22,15
89693,254,963,-120,4,-21,15
89694,253,959,-121,4,-19,16
89695,254,955,-124,4,-18,16
89696,253,957,-122,4,-16,17
89697,253,960,-114,4,-15,17
89698,250,957,-130,4,-12,18
89699,257,958,-123,5,-12,16
89700,257,955,-124,6,-11,17
89701,252,958,-121,5,-11,16
89702,254,958,-124,4,-11,15
89703,257,959,-125,4,-10,16
89704,251,958,-126,4,-10,15
89705,261,965,-129,4,-11,14
89706,259,963,-130,2,-11,14
89707,265,965,-129,3,-13,12
89708,261,959,-126,2,-14,11
89709,265,961,-118,0,-16,9
89710,263,962,-124,1,-18,9
89711,263,956,-125,2,-18,9
89712,260,969,-125,2,-20,9
89713,264,964,-125,2,-21,9
89714,264,961,-122,2,-21,8
89715,265,962,-121,2,-24,7
89716,266,969,-127,1,-25,7
89717,261,962,-127,0,-28,7
89718,258,958,-124,0,-28,7
89719,263,961,-121,0,-29,7
89720,261,969,-117,0,-29,8
89721,249,964,-124,-1,-30,7
89722,257,967,-116,0,-30,7
89723,257,963,-123,0,-29,7
89724,261,964,-122,0,-28,7
89725,251,962,-121,0,-26,7
89726,250,958,-123,2,-24,7
89727,254,961,-124,2,-23,6
89728,259,960,-125,2,-22,5
89729,260,960,-118,1,-21,6
89730,257,961,-122,1,-20,7
89731,253,963,-122,3,-19,7
89732,257,961,-125,3,-19,7
89733,256,958,-120,3,-19,6
89734,257,964,-121,3,-18,5
89735,257,958,-126,2,-18,6
89736,260,959,-123,2,-18,6
89737,260,962,-119,3,-21,6
89738,261,965,-127,4,-22,4
89739,256,959,-124,4,-23,5
89740,255,958,-124,4,-23,6
89741,257,962,-132,3,-22,6
89742,256,960,-125,3,-23,6
89743,255,959,-124,2,-24,5
89744,256,960,-126,3,-23,5
89745,256,958,-121,4,-22,5
89746,258,957,-123,3,-18,5
89747,255,958,-119,4,-17,7
89748,259,959,-121,4,-16,7
89749,252,960,-122,5,-15,7
89750,249,960,-121,4,-12,7
89751,254,955,-124,4,-12,9
89752,253,967,-119,6,-10,9
89753,252,962,-124,7,-12,9
89754,257,962,-118,5,-11,9
89755,253,959,-119,6,-13,9
89756,257,962,-116,6,-12,9
89757,261,967,-120,5,-14,11
89758,256,963,-121,4,-14,9
89759,260,963,-118,4,-15,10
89760,255,961,-121,4,-18,10
89761,254,960,-123,4,-21,9
89762,251,962,-126,3,-21,9
89763,254,964,-123,4,-21,9
89764,256,961,-121,3,-23,7
89765,244,964,-125,3,-26,7
89766,255,964,-120,2,-25,7
89767,245,962,-124,2,-24,7
89768,251,966,-125,2,-23,7
89769,252,962,-131,1,-23,7
89770,249,964,-121,2,-22,6
89771,248,967,-122,2,-22,7
89772,250,969,-122,3,-21,8
89773,249,965,-125,3,-21,8
89774,255,964,-124,4,-18,8
89775,247,969,-128,4,-18,8
89776,254,963,-124,4,-16,8
89777,247,963,-122,4,-16,9
89778,250,964,-128,4,-16,8
89779,251,962,-119,4,-17,7
89780,254,956,-124,4,-18,8
89781,255,961,-122,2,-18,7
89782,250,958,-113,2,-20,6
89783,244,956,-122,2,-21,6
89784,248,958,-125,2,-20,7
89785,244,959,-121,2,-18,8
89786,252,958,-121,3,-18,9
89787,252,959,-127,3,-18,9
89788,249,965,-119,3,-18,7
89789,247,964,-123,4,-18,7
89790,245,966,-118,4,-18,7
89791,251,962,-116,4,-19,6
89792,249,964,-120,2,-18,4
89793,255,967,-120,2,-20,3
89794,245,965,-117,2,-21,4
89795,252,968,-111,2,-23,6
89796,251,973,-116,4,-25,8
89797,247,966,-122,4,-25,9
89798,253,966,-118,4,-25,11
89799,244,960,-118,4,-26,14
89800,252,962,-123,4,-26,14
89801,247,963,-127,4,-24,16
89802,246,965,-123,4,-20,18
89803,250,959,-128,6,-18,17
89804,245,961,-123,7,-16,17
89805,247,962,-124,6,-14,17
89806,246,957,-119,6,-10,16
89807,249,958,-128,7,-9,18
89808,246,965,-124,7,-10,19
89809,252,961,-117,9,-11,18
89810,248,960,-120,7,-13,17
89811,252,963,-117,7,-16,18
89812,245,963,-121,7,-18,18
89813,244,964,-122,6,-23,16
89814,245,969,-121,8,-26,14
89815,249,959,-119,7,-29,14
89816,246,962,-119,7,-28,14
89817,246,958,-122,5,-28,14
89818,242,953,-123,5,-27,16
89819,247,961,-128,4,-25,16
89820,244,964,-123,4,-24,16
89821,244,966,-119,4,-21,16
89822,243,964,-118,5,-21,17
89823,246,960,-120,5,-21,16
89824,251,964,-122,4,-18,17
89825,248,961,-119,4,-17,18
89826,246,963,-124,5,-17,18
89827,248,958,-116,5,-18,18
89828,248,964,-123,5,-18,18
89829,251,968,-121,6,-18,18
89830,246,962,-118,6,-16,17
89831,252,959,-121,6,-19,16
89832,243,960,-121,4,-21,16
89833,243,960,-115,3,-23,18
89834,246,957,-121,2,-22,17
89835,244,961,-123,2,-21,18
89836,255,961,-121,2,-21,18
89837,251,961,-125,2,-21,17
89838,245,965,-126,2,-21,17
89839,251,956,-122,2,-20,18
89840,247,963,-125,3,-21,18
89841,243,963,-130,4,-21,16
89842,248,962,-128,4,-22,17
89843,249,960,-125,5,-23,18
89844,249,961,-125,4,-23,16
89845,256,961,-128,4,-25,17
89846,251,964,-124,4,-24,17
89847,250,961,-124,4,-25,16
89848,250,964,-122,4,-25,16
89849,253,962,-124,3,-26,17
89850,249,963,-121,3,-27,16
89851,254,964,-119,4,-28,18
89852,249,959,-119,4,-27,18
89853,253,963,-122,4,-24,19
89854,248,971,-123,4,-23,20
89855,247,967,-124,4,-23,20
89856,244,964,-120,6,-23,20
89857,246,963,-117,6,-21,20
89858,246,958,-126,4,-20,21
89859,245,960,-127,3,-20,22
89860,246,961,-115,4,-20,21
89861,249,966,-120,5,-21,22
89862,248,960,-123,5,-22,22
89863,254,959,-119,5,-23,21
89864,242,961,-122,5,-22,21
89865,246,963,-118,4,-23,21
89866,251,967,-118,4,-21,21
89867,245,965,-126,4,-22,21
89868,247,963,-122,4,-22,22
89869,242,967,-118,5,-22,21
89870,242,967,-121,4,-21,22
89871,249,964,-125,4,-22,21
89872,242,958,-121,4,-21,20
89873,246,964,-119,5,-20,20
89874,249,964,-120,4,-19,20
89875,246,964,-119,3,-18,21
89876,248,964,-124,4,-17,20
89877,248,962,-122,5,-17,20
89878,248,964,-123,6,-18,20
89879,243,961,-123,5,-17,19
89880,245,959,-126,7,-16,18
89881,243,963,-123,6,-15,19
89882,246,965,-129,6,-15,19
89883,244,954,-125,5,-14,18
89884,249,967,-119,6,-14,20
89885,254,963,-120,6,-14,20
89886,247,966,-124,6,-14,19
89887,251,965,-115,6,-16,20
89888,251,962,-122,6,-15,18
89889,252,962,-127,6,-16,19
89890,249,963,-122,7,-16,20
89891,254,962,-121,7,-16,19
89892,253,965,-127,7,-17,20
89893,254,964,-125,5,-18,19
89894,254,963,-124,5,-18,20
89895,257,964,-125,5,-20,20
89896,251,970,-123,6,-20,18
89897,253,964,-127,6,-20,19
89898,254,961,-122,4,-20,18
89899,254,964,-128,4,-20,18
89900,251,963,-117,5,-20,18
89901,248,961,-120,4,-21,18
89902,258,966,-116,4,-19,19
89903,254,964,-118,4,-21,20
89904,250,961,-121,4,-22,19
89905,254,964,-121,5,-23,19
89906,252,963,-126,4,-23,18
89907,253,963,-121,4,-23,18
89908,250,963,-123,5,-23,17
89909,252,962,-116,4,-24,18
89910,251,965,-120,4,-23,18
89911,249,964,-121,4,-23,19
89912,242,966,-122,6,-23,20
89913,246,962,-128,4,-23,20
89914,246,960,-127,4,-23,19
89915,245,965,-118,4,-23,19
89916,248,954,-124,6,-24,19
89917,247,965,-119,5,-23,18
89918,245,961,-120,6,-21,18
89919,249,961,-125,4,-20,19
89920,248,959,-123,5,-19,18
89921,251,966,-122,6,-20,18
89922,249,969,-116,5,-18,19
89923,252,965,-121,5,-18,19
89924,251,963,-129,4,-18,19
89925,243,959,-124,5,-18,19
89926,249,966,-126,5,-16,20
89927,242,959,-121,4,-17,18
89928,243,962,-125,5,-17,18
89929,247,959,-118,5,-18,18
89930,249,959,-121,6,-19,18
89931,246,961,-125,5,-21,17
89932,251,961,-125,4,-21,16
89933,251,961,-117,4,-23,16
89934,247,967,-121,4,-21,16
89935,252,961,-121,4,-21,17
89936,248,964,-122,4,-20,17
89937,250,963,-120,4,-17,16
89938,254,964,-114,3,-15,14
89939,250,966,-121,3,-15,15
89940,238,964,-121,4,-15,14
89941,245,971,-121,4,-16,13
89942,247,967,-120,4,-15,13
89943,245,970,-120,4,-16,11
89944,246,970,-119,5,-16,12
89945,250,964,-117,6,-18,14
89946,251,967,-121,6,-18,14
89947,252,962,-114,8,-18,16
89948,247,963,-120,9,-19,18
89949,249,962,-121,8,-18,20
89950,254,959,-118,7,-17,18
89951,250,965,-122,9,-17,20
89952,244,963,-129,7,-16,21
89953,246,964,-122,7,-14,20
89954,247,971,-125,7,-11,20
89955,245,959,-130,6,-11,21
89956,256,958,-125,7,-12,20
89957,252,960,-124,7,-13,19
89958,258,964,-124,7,-14,20
89959,245,959,-122,7,-16,19
89960,252,964,-118,7,-19,19
89961,251,958,-121,7,-23,18
89962,253,954,-121,5,-24,18
89963,252,965,-122,5,-27,18
89964,255,962,-120,6,-30,16
89965,250,965,-122,7,-31,16
89966,248,962,-121,5,-30,14
89967,250,957,-126,6,-29,14
89968,245,966,-127,6,-28,16
89969,245,961,-123,5,-24,16
89970,251,961,-123,4,-21,18
89971,243,966,-119,4,-20,18
89972,244,964,-126,5,-19,18
89973,247,967,-119,4,-18,18
89974,246,967,-117,4,-17,18
89975,247,963,-117,5,-18,20
89976,249,967,-120,4,-18,18
89977,258,961,-120,4,-16,18
89978,250,962,-121,3,-17,18
89979,251,966,-117,5,-18,18
89980,241,964,-125,6,-20,18
89981,252,965,-115,5,-21,19
89982,252,959,-125,4,-22,19
89983,249,960,-123,4,-23,17
89984,254,959,-121,4,-23,18
89985,255,965,-127,3,-25,19
89986,249,959,-131,2,-26,18
89987,250,962,-126,2,-23,18
89988,251,969,-124,2,-23,18
89989,252,966,-125,3,-23,18
89990,246,964,-128,3,-23,16
89991,251,965,-123,4,-25,16
89992,247,961,-128,2,-25,16
89993,251,966,-126,4,-27,15
89994,247,967,-127,4,-26,14
89995,245,963,-124,5,-27,16
89996,243,960,-121,4,-26,14
89997,247,966,-121,4,-24,14
89998,243,961,-119,4,-22,15
89999,244,964,-122,5,-21,15
90000,243,961,-122,6,-20,16
90001,239,964,-121,5,-19,16
90002,245,962,-124,6,-16,16
90003,245,962,-121,7,-16,16
90004,249,963,-117,7,-15,16
90005,252,962,-125,7,-16,16
90006,253,965,-125,6,-16,16
90007,253,968,-120,7,-16,17
90008,248,964,-125,6,-17,16
90009,257,958,-124,6,-16,15
90010,251,968,-117,4,-16,14
90011,255,964,-119,5,-17,15
90012,251,960,-119,4,-18,12
90013,253,969,-129,5,-21,12
90014,255,965,-121,4,-23,11
90015,255,968,-124,4,-23,11
90016,255,964,-127,4,-25,12
90017,251,962,-120,5,-26,11
90018,253,963,-125,5,-25,11
90019,250,958,-121,4,-25,13
90020,246,966,-125,4,-25,14
90021,251,964,-123,4,-26,16
90022,246,966,-121,3,-25,16
90023,242,961,-122,4,-26,16
90024,245,967,-125,2,-25,18
90025,241,963,-121,4,-23,18
90026,244,958,-119,2,-22,18
90027,243,957,-120,2,-21,18
90028,243,960,-121,2,-21,18
90029,241,961,-110,2,-18,16
90030,241,956,-114,1,-18,15
90031,238,964,-120,2,-17,14
90032,242,954,-119,2,-15,13
90033,241,960,-119,2,-15,12
90034,240,957,-125,2,-16,12
90035,242,963,-120,1,-16,11
90036,243,961,-121,1,-16,10
90037,247,964,-123,0,-13,9
90038,247,959,-128,1,-11,7
90039,251,957,-125,2,-12,9
90040,252,961,-121,1,-13,9
90041,253,954,-130,2,-14,7
90042,254,962,-128,2,-13,9
90043,252,959,-129,3,-14,9
90044,254,959,-128,2,-15,9
90045,258,961,-132,4,-15,11
90046,258,959,-126,4,-16,11
90047,257,959,-133,3,-17,11
90048,255,962,-128,4,-19,11
90049,264,961,-124,4,-21,14
90050,258,966,-124,3,-20,14
90051,256,964,-124,3,-23,14
90052,250,960,-124,2,-25,14
90053,254,960,-117,2,-28,15
90054,251,964,-119,2,-30,16
90055,255,963,-121,0,-31,16
90056,248,969,-115,0,-34,16
90057,244,968,-116,0,-36,15
90058,245,959,-118,0,-37,15
90059,244,964,-117,-1,-38,17
90060,239,965,-114,0,-41,17
90061,243,963,-117,-2,-41,16
90062,242,962,-117,-2,-39,16
90063,241,967,-115,-2,-37,16
90064,230,966,-117,-2,-37,14
90065,243,966,-120,-2,-34,14
90066,234,964,-120,-1,-31,15
90067,240,970,-123,0,-29,14
90068,239,966,-120,1,-28,14
90069,243,966,-122,1,-24,16
90070,240,965,-121,1,-23,17
90071,240,973,-121,2,-21,18
90072,238,970,-124,2,-21,18
90073,242,967,-125,3,-19,18
90074,239,964,-119,3,-18,18
90075,241,962,-117,4,-18,17
90076,246,965,-121,4,-19,18
90077,239,959,-119,4,-22,17
90078,241,966,-114,4,-21,17
90079,237,965,-119,4,-22,18
90080,248,962,-120,3,-22,18
90081,248,959,-117,5,-22,18
90082,239,958,-114,4,-20,18
90083,235,963,-116,4,-19,17
90084,236,963,-124,4,-18,16
90085,238,968,-120,4,-17,16
90086,233,971,-119,4,-16,14
90087,235,974,-122,5,-15,13
90088,244,972,-121,5,-16,12
90089,241,967,-116,7,-16,13
90090,239,973,-111,7,-16,14
90091,242,970,-112,7,-15,14
90092,244,971,-115,7,-15,16
90093,239,968,-116,9,-14,18
90094,241,965,-121,9,-12,18
90095,243,960,-118,9,-11,18
90096,247,959,-124,9,-9,18
90097,247,965,-120,9,-8,18
90098,246,959,-119,9,-6,18
90099,247,961,-126,9,-5,20
90100,250,969,-124,11,-3,20
90101,247,963,-126,11,-1,19
90102,259,961,-125,10,0,21
90103,250,960,-126,11,-1,22
90104,257,962,-128,9,-4,21
90105,257,962,-127,9,-6,22
90106,256,959,-124,10,-9,21
90107,251,966,-114,9,-14,21
90108,252,962,-120,9,-17,21
90109,251,955,-120,9,-21,19
90110,256,954,-122,8,-23,19
90111,250,956,-128,7,-25,19
90112,250,964,-124,7,-27,20
90113,243,959,-121,5,-28,18
90114,249,959,-125,5,-25,18
90115,247,964,-124,5,-26,18
90116,246,958,-124,5,-25,18
90117,246,962,-125,4,-25,18
90118,247,959,-122,4,-23,18
90119,247,967,-122,4,-22,19
90120,242,961,-117,4,-22,18
90121,247,967,-123,4,-23,18
90122,246,962,-122,4,-23,18
90123,251,963,-118,3,-23,17
90124,250,961,-118,3,-23,18
90125,251,963,-117,3,-24,16
90126,244,961,-123,1,-25,16
90127,246,965,-118,1,-27,18
90128,243,967,-122,2,-28,18
90129,248,965,-118,2,-27,18
90130,247,966,-128,2,-25,18
90131,250,956,-123,2,-25,18
90132,251,963,-126,0,-24,18
90133,254,968,-117,2,-24,18
90134,250,965,-124,3,-23,18
90135,246,965,-126,3,-23,19
90136,246,972,-124,4,-22,18
90137,244,967,-124,4,-23,18
90138,251,968,-119,4,-24,18
90139,249,966,-119,4,-25,18
90140,248,964,-126,4,-27,18
90141,244,967,-122,4,-26,18
90142,246,966,-116,3,-25,17
90143,243,962,-121,4,-26,16
90144,242,966,-123,5,-25,15
90145,243,968,-123,4,-24,16
90146,242,960,-121,4,-24,15
90147,241,962,-116,4,-23,15
90148,249,963,-117,6,-21,14
90149,245,960,-123,6,-18,14
90150,247,964,-122,5,-18,14
90151,245,966,-126,5,-16,14
90152,246,964,-122,4,-16,13
90153,243,968,-121,4,-16,13
90154,248,965,-121,5,-15,11
90155,255,968,-120,5,-16,11
90156,250,970,-123,5,-18,9
90157,255,967,-128,6,-20,8
90158,255,963,-119,5,-20,7
90159,258,967,-116,6,-21,7
90160,258,964,-116,4,-22,8
90161,253,968,-122,5,-23,7
90162,253,964,-122,4,-25,7
90163,251,963,-121,5,-25,6
90164,254,969,-118,6,-27,6
90165,248,963,-117,7,-29,6
90166,251,971,-119,7,-30,7
90167,247,968,-113,6,-32,8
90168,243,966,-116,7,-32,11
90169,239,967,-120,7,-32,11
90170,241,964,-113,8,-32,12
90171,240,967,-114,6,-32,14
90172,240,963,-115,7,-32,16
90173,232,962,-116,6,-30,16
90174,231,963,-116,7,-28,18
90175,236,955,-120,6,-26,19
90176,230,965,-113,6,-25,19
90177,230,963,-116,5,-23,19
90178,229,958,-116,6,-18,18
90179,229,958,-111,5,-17,18
90180,226,959,-122,4,-15,19
90181,232,959,-113,5,-12,17
90182,231,957,-121,5,-11,17
90183,233,961,-114,4,-9,17
90184,232,959,-119,7,-7,16
90185,233,963,-120,5,-7,16
90186,235,964,-122,6,-5,15
90187,239,961,-127,5,-3,15
90188,240,960,-123,6,-2,16
90189,246,963,-128,4,-2,14
90190,242,964,-118,5,0,13
90191,251,960,-132,7,0,14
90192,249,961,-133,6,0,14
90193,244,962,-127,6,-1,13
90194,250,963,-127,7,-2,12
90195,252,964,-131,7,-3,11
90196,251,960,-135,8,-6,11
90197,252,966,-127,7,-8,9
90198,254,965,-131,7,-9,10
90199,258,961,-129,7,-10,11
90200,252,964,-124,7,-11,11
90201,249,965,-129,7,-14,11
90202,254,965,-126,6,-16,10
90203,248,967,-127,5,-18,9
90204,253,962,-130,7,-18,9
90205,254,965,-130,6,-20,8
90206,246,965,-126,6,-21,7
90207,253,974,-129,4,-23,7
90208,249,963,-115,4,-25,6
90209,256,971,-125,4,-28,7
90210,251,963,-126,3,-29,6
90211,253,966,-116,2,-30,7
90212,250,964,-120,2,-32,7
90213,257,969,-120,2,-35,9
90214,249,969,-122,2,-38,9
90215,253,964,-119,1,-40,9
90216,250,970,-115,2,-42,10
90217,255,966,-124,2,-44,11
90218,250,966,-120,1,-45,11
90219,244,972,-122,1,-49,12
90220,240,964,-123,0,-51,13
90221,243,963,-120,1,-51,14
90222,240,960,-116,0,-51,14
90223,237,960,-120,0,-53,15
90224,236,958,-119,0,-53,15
90225,240,964,-113,-1,-53,16
90226,239,960,-110,0,-53,17
90227,225,962,-112,0,-52,19
90228,228,968,-107,0,-51,18
90229,230,962,-115,0,-47,20
90230,222,965,-114,0,-43,20
90231,225,962,-110,2,-41,19
90232,221,966,-119,3,-39,18
90233,224,970,-116,3,-36,19
90234,221,971,-117,3,-33,17
90235,223,964,-119,4,-30,16
90236,223,967,-117,6,-29,17
90237,228,969,-114,7,-27,19
90238,226,969,-113,8,-23,21
90239,226,965,-111,7,-22,22
90240,226,974,-122,8,-20,23
90241,227,963,-115,10,-17,23
90242,233,975,-118,11,-14,23
90243,232,961,-126,9,-11,23
90244,227,964,-123,11,-7,22
90245,229,963,-119,11,-4,22
90246,243,967,-128,11,0,21
90247,240,968,-127,11,1,20
90248,248,962,-130,13,4,21
90249,245,972,-129,14,5,21
90250,252,967,-129,15,8,21
90251,252,967,-134,16,9,23
90252,246,966,-130,18,9,23
90253,247,969,-132,19,7,25
90254,253,962,-126,18,4,24
90255,255,968,-124,18,1,23
90256,249,961,-120,17,-2,23
90257,257,962,-125,16,-4,23
90258,253,964,-125,17,-7,22
90259,253,959,-121,15,-11,21
90260,245,966,-121,14,-15,21
90261,244,959,-119,12,-15,22
90262,244,961,-132,11,-16,22
90263,246,957,-126,11,-16,23
90264,247,963,-126,11,-18,24
90265,245,959,-132,11,-19,25
90266,243,965,-130,11,-18,25
90267,244,963,-118,9,-18,25
90268,251,958,-122,8,-21,25
90269,243,957,-118,9,-23,24
90270,244,960,-117,7,-23,25
90271,239,959,-119,5,-24,24
90272,241,956,-121,4,-24,23
90273,243,963,-119,3,-25,24
90274,243,960,-122,1,-27,23
90275,244,962,-126,0,-29,21
90276,241,963,-127,-1,-29,21
90277,242,959,-123,-2,-29,20
90278,241,962,-130,-2,-28,18
90279,238,964,-133,-2,-28,18
90280,245,966,-130,-2,-26,18
90281,243,962,-133,0,-28,18
90282,243,960,-134,0,-28,17
90283,243,964,-135,0,-28,17
90284,246,966,-129,1,-27,16
90285,245,963,-133,1,-28,16
90286,241,962,-134,1,-27,17
90287,236,968,-127,1,-28,17
90288,240,970,-133,0,-28,16
90289,241,967,-123,1,-28,16
90290,243,967,-122,2,-27,16
90291,243,965,-125,2,-28,15
90292,243,970,-127,3,-28,16
90293,244,967,-121,2,-28,16
90294,245,971,-124,2,-27,16
90295,241,966,-122,2,-25,17
90296,236,967,-120,4,-25,18
90297,237,966,-121,4,-25,18
90298,240,970,-117,4,-23,19
90299,236,968,-120,3,-23,21
90300,238,968,-117,2,-21,21
90301,241,962,-115,3,-22,21
90302,231,967,-111,2,-22,21
90303,241,964,-116,3,-21,21
90304,240,960,-118,3,-22,21
90305,240,964,-120,3,-22,21
90306,235,961,-117,2,-22,22
90307,240,962,-118,3,-22,22
90308,238,964,-112,3,-21,20
90309,240,962,-124,4,-20,21
90310,237,966,-124,4,-19,21
90311,242,962,-121,2,-18,21
90312,243,963,-120,3,-18,21
90313,239,962,-123,3,-16,21
90314,243,967,-123,3,-15,21
90315,246,966,-126,4,-14,21
90316,240,961,-121,4,-14,21
90317,245,959,-121,4,-14,21
90318,242,964,-127,5,-14,21
90319,243,964,-122,5,-14,22
90320,245,962,-123,4,-16,21
90321,246,964,-122,4,-16,21
90322,243,963,-115,4,-16,20
90323,246,968,-113,3,-16,19
90324,244,961,-120,3,-17,19
90325,245,969,-125,3,-16,19
90326,240,969,-123,3,-17,18
90327,245,966,-125,4,-16,18
90328,246,963,-123,4,-17,18
90329,245,967,-121,4,-18,20
90330,243,965,-118,3,-18,18
90331,247,960,-123,4,-18,18
90332,243,968,-120,4,-18,18
90333,245,969,-125,4,-18,18
90334,239,971,-126,3,-19,18
90335,245,967,-124,3,-20,17
90336,243,970,-125,4,-20,18
90337,244,964,-119,3,-21,18
90338,250,963,-122,2,-19,17
90339,240,963,-120,2,-21,18
90340,245,965,-117,4,-21,18
90341,247,963,-120,4,-21,18
90342,242,962,-121,4,-18,19
90343,249,963,-121,4,-18,19
90344,242,962,-121,4,-21,18
90345,243,964,-120,4,-21,18
90346,243,968,-123,4,-20,18
90347,245,960,-121,4,-21,17
90348,251,966,-116,4,-22,17
90349,241,962,-127,5,-22,18
90350,240,966,-118,4,-20,16
90351,244,973,-122,5,-20,16
90352,240,964,-127,6,-20,16
90353,243,969,-121,7,-20,16
90354,246,963,-120,6,-21,16
90355,243,963,-122,7,-21,17
90356,249,960,-122,6,-21,17
90357,243,961,-120,7,-22,16
90358,247,963,-121,7,-21,15
90359,242,962,-121,7,-21,17
90360,241,964,-127,6,-22,16
90361,243,963,-119,5,-21,16
90362,238,969,-127,6,-19,16
90363,246,968,-120,7,-18,17
90364,252,969,-124,7,-16,16
90365,245,971,-122,7,-17,17
90366,241,964,-123,5,-16,16
90367,244,975,-122,5,-17,15
90368,247,969,-125,5,-18,14
90369,247,965,-124,4,-20,13
90370,242,960,-120,3,-21,13
90371,241,963,-122,3,-21,11
90372,244,960,-116,3,-23,11
90373,243,962,-126,2,-25,12
90374,239,964,-121,2,-25,11
90375,239,962,-119,2,-27,11
90376,245,970,-115,2,-25,11
90377,244,963,-121,2,-25,12
90378,241,964,-120,2,-23,14
90379,242,966,-122,2,-21,13
90380,241,965,-121,2,-19,12
90381,235,964,-114,2,-18,11
90382,241,965,-120,4,-18,8
90383,232,966,-120,4,-18,7
90384,239,962,-119,4,-18,7
90385,238,967,-121,3,-18,9
90386,246,969,-119,4,-19,9
90387,243,966,-117,4,-20,11
90388,238,967,-118,6,-22,12
90389,243,960,-115,5,-22,13
90390,241,965,-121,5,-22,14
90391,239,964,-121,6,-21,15
90392,241,962,-119,7,-18,16
90393,240,964,-126,5,-16,16
90394,242,966,-125,6,-15,16
90395,248,970,-122,7,-14,16
90396,251,967,-125,7,-11,16
90397,241,964,-124,6,-7,18
90398,248,970,-123,7,-7,19
90399,247,961,-122,7,-9,19
90400,249,966,-128,7,-13,21
90401,243,966,-122,6,-15,21
90402,241,965,-121,6,-17,22
90403,245,966,-123,5,-20,21
90404,239,960,-118,6,-24,21
90405,243,962,-120,6,-25,19
90406,238,960,-122,4,-25,19
90407,239,962,-120,6,-28,18
90408,239,965,-124,4,-28,17
90409,242,964,-125,4,-28,18
90410,233,962,-122,3,-25,16
90411,232,964,-128,3,-25,16
90412,233,964,-122,3,-25,16
90413,238,966,-118,4,-22,16
90414,233,968,-121,3,-21,17
90415,241,967,-125,4,-21,16
90416,240,966,-119,4,-22,15
90417,239,967,-125,4,-23,16
90418,239,962,-120,3,-23,16
90419,242,964,-121,4,-24,17
90420,243,966,-120,4,-24,17
90421,239,961,-120,6,-23,17
90422,242,963,-118,4,-24,18
90423,239,970,-122,3,-23,18
90424,243,962,-121,4,-23,19
90425,234,970,-124,5,-25,19
90426,241,963,-116,4,-23,19
90427,236,964,-126,5,-21,21
90428,241,968,-123,5,-21,22
90429,238,969,-125,5,-19,21
90430,239,966,-126,6,-18,22
90431,240,967,-122,5,-17,21
90432,238,967,-120,6,-19,21
90433,237,968,-118,6,-20,21
90434,237,968,-124,5,-21,22
90435,240,967,-121,6,-21,21
90436,239,969,-124,6,-22,23
90437,237,970,-125,7,-23,23
90438,229,965,-122,6,-23,21
90439,236,962,-122,6,-21,21
90440,235,969,-122,6,-20,20
90441,234,962,-124,7,-20,20
90442,238,962,-127,7,-20,19
90443,237,964,-118,4,-19,20
90444,239,966,-120,6,-17,20
90445,235,966,-116,5,-14,21
90446,237,968,-121,4,-12,22
90447,244,963,-124,6,-13,22
90448,236,961,-122,5,-11,22
90449,241,964,-121,5,-10,21
90450,245,966,-127,6,-9,23
90451,244,961,-123,6,-9,22
90452,236,957,-126,6,-9,23
90453,245,965,-122,6,-9,23
90454,242,962,-123,7,-9,23
90455,245,958,-126,7,-9,24
90456,246,964,-127,9,-11,25
90457,247,964,-126,7,-13,25
90458,248,962,-122,6,-12,25
90459,244,962,-120,5,-14,25
90460,248,965,-119,4,-14,25
90461,246,961,-124,4,-16,24
90462,242,959,-127,4,-16,24
90463,244,965,-125,3,-18,23
90464,252,965,-128,4,-20,23
90465,241,965,-124,2,-19,22
90466,245,962,-123,2,-20,21
90467,246,963,-121,4,-22,21
90468,243,956,-118,3,-22,21
90469,253,964,-125,2,-22,21
90470,245,962,-117,2,-23,19
90471,245,967,-123,2,-23,19
90472,245,963,-118,2,-24,20
90473,248,959,-119,2,-23,19
90474,244,966,-123,2,-22,18
90475,245,970,-116,2,-22,20
90476,240,965,-118,2,-21,21
90477,244,965,-118,2,-22,21
90478,246,962,-124,2,-22,21
90479,240,967,-119,2,-23,23
90480,240,966,-122,3,-23,23
90481,245,967,-121,4,-23,22
90482,249,964,-121,3,-23,22
90483,247,968,-116,3,-23,21
90484,248,961,-121,4,-24,21
90485,249,965,-121,4,-23,21
90486,248,960,-119,3,-23,21
90487,243,963,-120,4,-26,20
90488,244,968,-122,4,-25,20
90489,249,963,-123,6,-25,18
90490,245,967,-125,6,-27,18
90491,247,968,-124,5,-27,18
90492,243,968,-128,5,-28,18
90493,247,965,-126,4,-29,17
90494,246,964,-128,4,-28,16
90495,247,968,-121,4,-28,16
90496,243,967,-119,5,-28,16
90497,243,968,-119,6,-29,17
90498,247,966,-121,4,-28,16
90499,251,969,-120,6,-31,16
90500,245,967,-125,6,-31,17
90501,242,970,-124,6,-32,16
90502,238,964,-125,6,-33,17
90503,247,971,-124,5,-32,17
90504,246,969,-124,5,-34,17
90505,245,965,-120,6,-33,17
90506,243,961,-118,7,-33,16
90507,247,964,-117,8,-33,17
90508,246,962,-119,8,-32,17
90509,241,959,-119,7,-32,18
90510,241,965,-120,6,-32,18
90511,239,963,-116,6,-32,17
90512,236,961,-121,7,-32,17
90513,239,967,-115,7,-30,17
90514,239,967,-113,6,-28,17
90515,240,972,-117,7,-28,17
90516,231,964,-115,7,-28,16
90517,241,966,-117,7,-28,16
90518,237,962,-119,7,-26,16
90519,238,966,-121,7,-24,16
90520,243,967,-121,8,-25,17
90521,238,963,-120,7,-23,18
90522,241,965,-123,7,-23,17
90523,243,964,-122,7,-23,16
90524,240,957,-119,7,-24,16
90525,237,968,-121,4,-25,16
90526,237,964,-124,4,-25,16
90527,241,963,-122,4,-26,16
90528,244,963,-123,5,-25,17
90529,242,960,-122,5,-24,17
90530,235,967,-121,7,-22,18
90531,235,963,-125,7,-21,17
90532,240,967,-121,8,-18,16
90533,231,964,-123,9,-16,16
90534,238,960,-123,9,-14,15
90535,243,965,-126,9,-14,15
90536,238,969,-122,9,-14,15
90537,242,972,-115,11,-14,15
90538,243,976,-116,11,-14,16
90539,242,965,-121,11,-16,16
90540,249,972,-121,11,-17,19
90541,241,967,-119,11,-17,20
90542,245,966,-117,10,-18,20
90543,244,963,-121,11,-18,21
90544,236,963,-123,11,-19,21
90545,242,963,-125,10,-16,21
90546,239,966,-127,10,-15,21
90547,241,962,-134,11,-13,21
90548,243,959,-121,11,-12,21
90549,243,964,-123,11,-10,21
90550,246,967,-131,11,-9,20
90551,247,966,-130,10,-8,21
90552,248,964,-126,11,-9,21
90553,252,963,-130,11,-9,23
90554,247,962,-133,11,-11,23
90555,250,968,-129,11,-13,22
90556,248,969,-124,11,-16,23
90557,249,960,-127,11,-20,21
90558,249,962,-128,10,-22,20
90559,244,967,-120,9,-25,19
90560,249,960,-130,8,-29,18
90561,247,962,-123,8,-30,17
90562,239,966,-124,7,-30,16
90563,239,962,-120,5,-32,16
90564,243,963,-129,4,-31,16
90565,243,963,-127,4,-29,16
90566,235,963,-128,2,-28,16
90567,237,960,-121,4,-28,16
90568,239,958,-117,4,-27,16
90569,238,967,-121,4,-26,18
90570,243,965,-119,4,-26,18
90571,241,961,-122,5,-25,19
90572,241,962,-128,4,-24,19
90573,243,965,-124,4,-25,19
90574,243,964,-121,4,-25,20
90575,239,961,-121,4,-28,21
90576,249,967,-127,3,-29,21
90577,255,968,-128,4,-30,21
90578,241,966,-122,2,-30,21
90579,249,964,-125,2,-29,20
90580,245,970,-125,2,-28,20
90581,247,964,-123,2,-28,21
90582,248,965,-126,3,-26,21
90583,246,969,-125,4,-26,22
90584,247,963,-124,6,-26,22
90585,247,967,-121,7,-27,23
90586,243,971,-117,7,-26,24
90587,247,968,-119,7,-27,24
90588,241,964,-125,7,-27,25
90589,242,964,-124,7,-28,26
90590,246,966,-129,7,-29,25
90591,241,966,-120,7,-28,26
90592,239,963,-121,8,-28,26
90593,237,962,-120,9,-27,28
90594,239,964,-123,8,-28,28
90595,239,961,-121,9,-27,28
90596,243,965,-121,8,-28,30
90597,235,958,-122,9,-28,29
90598,245,969,-122,10,-25,30
90599,242,961,-120,11,-24,30
90600,233,964,-119,11,-25,29
90601,243,964,-127,11,-23,29
90602,239,962,-126,10,-22,30
90603,241,964,-121,10,-23,30
90604,240,967,-118,11,-23,31
90605,243,964,-122,11,-23,31
90606,240,960,-119,11,-23,30
90607,243,964,-127,11,-23,32
90608,244,963,-123,11,-24,31
90609,243,962,-131,14,-25,31
90610,245,965,-120,13,-25,32
90611,247,965,-126,14,-26,31
90612,249,973,-122,14,-27,31
90613,242,972,-126,14,-28,32
90614,253,971,-125,15,-26,32
90615,250,965,-127,16,-28,32
90616,249,973,-131,15,-29,32
90617,249,969,-124,15,-31,32
90618,246,974,-125,15,-30,34
90619,242,963,-126,16,-31,34
90620,244,971,-130,16,-35,33
90621,244,966,-136,15,-38,35
90622,244,970,-132,14,-38,34
90623,247,971,-132,15,-39,35
90624,251,968,-123,16,-37,36
90625,250,966,-128,17,-37,37
90626,249,965,-122,19,-36,37
90627,245,967,-126,20,-36,36
90628,243,963,-122,21,-36,37
90629,253,966,-124,23,-36,37
90630,249,969,-120,24,-36,35
90631,249,971,-126,25,-35,37
90632,254,970,-121,28,-35,37
90633,248,970,-122,28,-37,37
90634,258,968,-116,30,-39,37
90635,256,966,-114,28,-39,37
90636,255,966,-123,28,-42,37
90637,261,970,-119,30,-42,38
90638,258,971,-120,31,-44,37
90639,257,968,-114,32,-46,36
90640,258,970,-121,33,-47,36
90641,262,977,-116,35,-48,37
90642,264,971,-111,37,-47,37
90643,257,976,-112,42,-49,39
90644,255,982,-118,44,-49,41
90645,255,973,-121,47,-51,43
90646,263,976,-122,50,-51,44
90647,257,975,-121,52,-51,49
90648,258,974,-122,54,-52,52
90649,258,969,-123,56,-54,54
90650,254,972,-121,56,-56,57
90651,256,963,-120,57,-56,61
90652,258,963,-119,58,-57,63
90653,255,966,-119,60,-58,66
90654,252,961,-125,60,-59,69
90655,256,958,-122,62,-60,71
90656,251,955,-123,63,-60,72
90657,249,957,-122,63,-60,71
90658,243,941,-116,61,-60,70
90659,251,948,-122,59,-61,70
90660,248,950,-120,57,-62,69
90661,247,950,-126,54,-62,67
90662,250,953,-118,51,-62,65
90663,243,948,-116,48,-63,63
90664,239,951,-123,44,-65,60
90665,238,948,-124,40,-65,58
90666,238,955,-129,37,-63,56
90667,246,957,-128,34,-66,53
90668,239,957,-128,31,-66,53
90669,246,957,-137,28,-67,51
90670,236,957,-137,25,-65,50
90671,243,959,-149,25,-65,50
90672,242,963,-146,26,-63,50
90673,248,955,-146,27,-62,47
90674,244,957,-152,28,-61,44
90675,248,954,-162,27,-60,43
90676,248,951,-161,26,-59,40
90677,247,944,-166,23,-56,37
90678,253,936,-173,21,-54,34
90679,246,932,-171,19,-52,30
90680,245,930,-167,16,-51,25
90681,248,924,-172,14,-48,20
90682,246,922,-171,11,-44,15
90683,248,926,-176,9,-41,9
90684,244,918,-171,9,-39,3
90685,246,935,-181,7,-37,-2
90686,250,946,-177,7,-29,-7
90687,252,947,-171,9,-23,-9
90688,245,955,-174,11,-17,-12
90689,258,959,-176,16,-14,-14
90690,261,959,-174,16,-11,-16
90691,270,965,-173,20,-10,-16
90692,260,961,-174,22,-13,-16
90693,270,957,-171,22,-15,-15
90694,276,955,-173,19,-15,-13
90695,268,950,-165,15,-14,-10
90696,273,944,-168,11,-16,-9
90697,276,945,-161,7,-16,-5
90698,267,938,-162,2,-17,-4
90699,265,932,-164,0,-19,-4
90700,267,933,-158,-2,-22,-4
90701,261,930,-166,-4,-25,-4
90702,257,937,-166,-8,-28,-4
90703,261,941,-166,-11,-29,-4
90704,255,940,-163,-13,-31,-4
90705,263,944,-162,-12,-32,-4
90706,258,955,-162,-14,-32,-4
90707,262,961,-156,-13,-32,-2
90708,261,965,-162,-10,-32,0
90709,260,968,-153,-9,-30,0
90710,251,974,-153,-11,-29,2
90711,250,967,-150,-12,-30,4
90712,245,968,-146,-14,-30,6
90713,243,968,-144,-16,-31,7
90714,243,958,-148,-17,-28,8
90715,237,957,-141,-20,-29,9
90716,244,962,-144,-21,-30,7
90717,244,953,-142,-25,-31,7
90718,239,947,-145,-29,-32,4
90719,244,952,-149,-31,-37,4
90720,238,954,-153,-35,-40,1
90721,248,952,-144,-39,-44,-1
90722,246,949,-154,-43,-46,-3
90723,244,948,-149,-46,-51,-6
90724,243,953,-156,-47,-58,-7
90725,248,952,-148,-49,-60,-11
90726,239,954,-145,-52,-63,-14
90727,244,955,-149,-52,-66,-17
90728,241,953,-150,-52,-68,-21
90729,243,957,-144,-51,-70,-23
90730,240,963,-150,-51,-70,-25
90731,242,958,-143,-50,-70,-25
90732,242,962,-143,-48,-70,-26
90733,249,967,-144,-46,-70,-28
90734,251,972,-151,-44,-68,-25
90735,252,963,-145,-44,-66,-24
90736,251,969,-142,-42,-62,-21
90737,251,969,-138,-40,-58,-18
90738,255,971,-138,-38,-54,-15
90739,249,968,-142,-38,-50,-11
90740,249,970,-131,-35,-46,-8
90741,252,963,-128,-32,-45,-6
90742,249,972,-130,-31,-45,-4
90743,255,971,-128,-31,-45,-3
90744,251,974,-126,-30,-46,0
90745,246,963,-121,-28,-49,2
90746,243,965,-122,-28,-49,4
90747,247,963,-118,-26,-50,8
90748,245,967,-121,-27,-51,9
90749,248,966,-117,-23,-52,13
90750,243,969,-117,-24,-51,14
90751,244,968,-120,-22,-50,17
90752,240,963,-114,-19,-49,21
90753,240,964,-113,-19,-47,22
90754,235,960,-115,-20,-46,23
90755,238,970,-116,-20,-46,26
90756,232,975,-119,-19,-49,28
90757,240,967,-119,-18,-47,28
90758,235,971,-111,-17,-45,30
90759,228,979,-119,-17,-42,31
90760,232,973,-119,-14,-39,31
90761,234,975,-117,-12,-39,31
90762,229,982,-124,-11,-37,32
90763,227,975,-126,-11,-38,32
90764,230,978,-121,-12,-35,32
90765,222,975,-123,-11,-32,34
90766,221,979,-119,-11,-27,35
90767,223,976,-126,-10,-24,32
90768,224,975,-130,-8,-21,32
90769,225,974,-126,-7,-18,31
90770,223,973,-125,-7,-15,30
90771,227,973,-125,-6,-14,29
90772,230,970,-129,-4,-11,28
90773,231,968,-120,-4,-9,28
90774,228,965,-127,-2,-6,26
90775,233,967,-127,0,-4,26
90776,232,962,-130,2,-3,28
90777,236,962,-119,4,-2,27
90778,234,959,-126,5,-1,27
90779,239,967,-130,7,-1,26
90780,241,961,-125,9,0,25
90781,237,959,-131,9,0,27
90782,238,961,-130,9,1,28
90783,239,966,-136,9,2,27
90784,237,958,-130,10,1,26
90785,241,958,-133,9,1,27
90786,245,956,-120,7,2,25
90787,252,954,-126,9,3,25
90788,245,953,-130,9,4,23
90789,248,958,-129,7,3,23
90790,252,963,-125,7,2,22
90791,251,951,-127,7,0,21
90792,251,957,-133,7,-3,21
90793,259,961,-128,7,-5,21
90794,259,959,-129,7,-9,21
90795,258,965,-123,6,-15,21
90796,262,965,-130,5,-18,22
90797,261,964,-133,6,-21,23
90798,261,964,-134,5,-21,26
90799,265,964,-136,4,-22,28
90800,256,960,-134,4,-23,29
90801,256,959,-128,4,-24,30
90802,250,963,-136,4,-25,31
90803,258,963,-139,4,-27,33
90804,256,960,-135,4,-28,34
90805,256,960,-134,7,-28,36
90806,258,956,-126,8,-29,36
90807,255,960,-129,9,-31,37
90808,254,961,-134,9,-34,38
90809,248,960,-132,8,-34,39
90810,246,965,-127,7,-34,39
90811,247,964,-131,7,-34,42
90812,242,966,-135,6,-35,44
90813,246,965,-136,7,-37,44
90814,238,964,-131,4,-37,45
90815,246,964,-138,4,-37,45
90816,244,957,-140,4,-36,45
90817,240,960,-142,5,-35,46
90818,244,961,-130,6,-32,45
90819,246,957,-144,4,-32,44
90820,245,961,-134,3,-30,42
90821,249,962,-142,3,-29,42
90822,247,962,-144,2,-28,40
90823,246,961,-136,4,-29,38
90824,247,961,-136,2,-32,37
90825,247,969,-135,2,-36,36
90826,246,962,-137,1,-39,34
90827,250,970,-132,1,-43,34
90828,249,969,-140,2,-47,35
90829,248,970,-137,4,-50,35
90830,242,968,-136,4,-51,37
90831,241,971,-133,4,-53,37
90832,243,961,-133,4,-53,37
90833,241,962,-138,4,-50,40
90834,238,961,-133,4,-46,41
90835,239,963,-135,4,-43,42
90836,237,956,-125,2,-41,42
90837,245,965,-134,2,-37,42
90838,231,951,-127,1,-34,41
90839,239,956,-129,0,-31,40
90840,237,948,-130,0,-29,38
90841,246,955,-135,0,-29,35
90842,237,954,-127,0,-29,33
90843,240,955,-133,-1,-28,30
90844,249,955,-124,0,-29,27
90845,247,955,-123,0,-31,26
90846,244,958,-128,0,-31,25
90847,243,956,-132,0,-32,25
90848,251,963,-133,0,-32,25
90849,249,962,-127,0,-33,27
90850,250,960,-138,1,-30,28
90851,255,958,-129,2,-30,28
90852,255,958,-137,1,-25,29
90853,261,967,-129,2,-24,30
90854,256,964,-140,3,-21,30
90855,261,969,-136,4,-19,30
90856,267,962,-133,3,-18,32
90857,264,963,-131,3,-18,34
90858,261,960,-132,5,-18,35
90859,261,957,-136,7,-19,37
90860,264,975,-154,8,-21,41
90861,266,971,-145,-6,-16,45
90862,258,957,-137,3,-25,43
90863,268,961,-133,0,-28,42
90864,260,958,-135,2,-27,43
90865,258,963,-133,1,-27,44
90866,256,959,-123,7,-31,45
90867,261,957,-123,10,-34,44
90868,255,962,-123,7,-33,46
90869,251,962,-131,4,-32,46
90870,255,964,-128,4,-32,47
90871,257,966,-123,5,-30,49
90872,246,955,-127,4,-30,48
90873,250,960,-131,7,-30,48
90874,249,961,-127,3,-30,47
90875,248,957,-126,4,-29,47
90876,249,953,-135,4,-30,47
90877,251,959,-135,7,-30,47
90878,251,955,-124,6,-28,46
90879,252,955,-130,3,-28,44
90880,257,962,-137,3,-28,44
90881,254,959,-128,4,-29,42
90882,260,955,-130,3,-30,42
90883,260,959,-135,2,-31,40
90884,258,962,-136,-2,-30,39
90885,254,960,-141,-2,-29,39
90886,259,959,-140,-1,-27,37
90887,258,963,-128,1,-26,35
90888,254,963,-127,7,-27,34
90889,253,960,-134,1,-26,33
90890,258,965,-139,0,-26,35
90891,256,962,-127,3,-29,35
90892,260,958,-133,8,-31,32
90893,255,955,-125,9,-30,32
90894,255,960,-131,6,-29,32
90895,254,964,-138,-4,-27,34
90896,264,967,-151,-9,-25,35
90897,259,953,-136,-2,-25,35
90898,259,961,-141,2,-27,32
90899,266,961,-142,3,-27,32
90900,255,955,-147,4,-26,33
90901,271,955,-143,1,-26,32
90902,263,949,-137,2,-24,30
90903,261,956,-139,2,-23,29
90904,263,954,-142,0,-23,30
90905,266,948,-128,0,-22,30
90906,263,951,-134,0,-23,28
90907,260,952,-136,0,-23,30
90908,264,952,-138,-3,-22,28
90909,258,951,-132,0,-23,29
90910,261,953,-132,0,-23,30
90911,267,955,-130,-2,-23,30
90912,266,958,-131,-5,-24,30
90913,266,959,-135,-4,-25,29
90914,266,957,-129,0,-23,30
90915,264,959,-139,-4,-21,31
90916,267,955,-129,-5,-21,30
90917,260,956,-128,-2,-21,30
90918,261,958,-129,-2,-23,32
90919,259,958,-132,-4,-23,32
90920,264,956,-121,-6,-23,32
90921,263,954,-132,-11,-23,32
90922,261,956,-128,-11,-22,32
90923,256,956,-130,-10,-22,32
90924,265,957,-130,-8,-22,31
90925,260,954,-122,-7,-23,30
90926,259,960,-130,-7,-23,30
90927,260,953,-135,-8,-22,32
90928,263,958,-132,-10,-24,30
90929,257,961,-134,-9,-23,28
90930,253,956,-127,-5,-23,29
90931,254,965,-122,-12,-24,30
90932,259,957,-140,-14,-26,29
90933,267,965,-134,-17,-25,26
90934,254,959,-130,-17,-23,28
90935,263,951,-130,-11,-25,28
90936,264,958,-129,-14,-28,26
90937,262,956,-129,-16,-28,25
90938,266,959,-134,-21,-27,25
90939,269,956,-125,-22,-28,24
90940,266,959,-128,-21,-31,23
90941,264,961,-124,-21,-34,23
90942,260,956,-128,-19,-35,22
90943,261,958,-133,-19,-37,20
90944,267,954,-122,-18,-37,19
90945,257,951,-125,-17,-35,18
90946,268,959,-126,-17,-34,18
90947,261,960,-127,-18,-33,18
90948,270,961,-137,-15,-34,18
90949,262,960,-129,-16,-31,18
90950,273,961,-129,-13,-30,17
90951,267,957,-135,-17,-29,18
90952,271,959,-126,-14,-30,18
90953,270,960,-126,-14,-32,18
90954,277,960,-125,-14,-35,18
90955,271,958,-129,-15,-37,18
90956,265,956,-131,-13,-39,16
90957,264,959,-126,-11,-41,15
90958,272,958,-130,-11,-42,15
90959,276,958,-127,-9,-43,15
90960,273,958,-129,-9,-44,16
90961,268,959,-129,-8,-42,17
90962,268,959,-129,-7,-42,18
90963,270,961,-129,-4,-42,19
90964,271,956,-126,-5,-42,21
90965,265,959,-125,-7,-41,20
90966,270,962,-130,-11,-37,21
90967,270,959,-121,-7,-39,21
90968,271,960,-127,-5,-38,18
90969,263,964,-121,-4,-36,17
90970,265,958,-112,0,-35,16
90971,255,967,-131,1,-35,17
90972,261,971,-126,4,-37,14
90973,260,968,-132,4,-37,15
90974,262,968,-127,9,-35,17
90975,256,954,-126,11,-35,18
90976,260,964,-129,7,-35,17
90977,257,960,-125,0,-36,19
90978,261,962,-124,0,-39,21
90979,269,964,-119,0,-42,22
90980,267,957,-116,-2,-45,22
90981,255,955,-120,-8,-47,21
90982,265,955,-115,-11,-50,20
90983,262,960,-116,-7,-53,21
90984,268,961,-120,-7,-54,21
90985,258,961,-122,-1,-51,21
90986,256,960,-124,0,-47,20
90987,258,963,-130,2,-44,21
90988,270,961,-124,2,-42,19
90989,263,954,-125,2,-41,18
90990,264,959,-119,0,-40,18
90991,265,960,-123,2,-43,18
90992,273,957,-125,1,-46,19
90993,270,956,-115,3,-48,19
90994,265,961,-128,2,-49,18
90995,258,960,-122,2,-48,20
90996,270,964,-124,2,-46,19
90997,266,961,-123,4,-44,21
90998,257,960,-133,6,-44,23
90999,260,961,-128,4,-42,26
91000,250,951,-123,4,-39,29
91001,262,955,-123,4,-39,30
91002,255,948,-122,1,-40,31
91003,261,954,-128,-2,-41,32
91004,262,948,-121,-2,-42,33
91005,257,951,-123,-4,-39,32
91006,264,955,-121,-6,-35,32
91007,260,952,-121,-4,-35,30
91008,263,958,-123,-3,-37,28
91009,257,962,-124,0,-39,27
91010,259,958,-120,0,-41,26
91011,255,956,-121,0,-43,26
91012,258,958,-115,-1,-42,25
91013,252,958,-122,-2,-42,25
91014,258,955,-126,-2,-41,25
91015,258,956,-126,-2,-38,24
91016,250,957,-126,0,-34,25
91017,258,964,-131,0,-30,27
91018,257,963,-132,3,-26,29
91019,251,958,-125,4,-25,30
91020,263,959,-130,2,-25,31
91021,260,959,-123,-1,-22,33
91022,255,955,-120,0,-21,36
91023,254,961,-127,0,-19,35
91024,263,957,-121,1,-17,35
91025,256,964,-120,2,-16,35
91026,264,954,-119,4,-17,35
91027,261,955,-120,4,-18,37
91028,255,952,-117,3,-21,34
91029,259,952,-124,2,-21,35
91030,256,959,-118,1,-19,36
91031,258,954,-118,0,-18,36
91032,253,952,-121,1,-14,35
91033,256,951,-128,0,-14,35
91034,255,954,-124,1,-11,33
91035,261,956,-129,-4,-9,34
91036,260,954,-129,-1,-9,34
91037,261,951,-133,-2,-9,32
91038,257,955,-125,-6,-6,34
91039,260,950,-128,-7,-7,33
91040,259,954,-136,-6,-6,35
91041,252,952,-124,-2,-4,34
91042,258,958,-128,-2,0,36
91043,261,958,-136,-7,1,35
91044,266,960,-127,-8,2,35
91045,277,965,-121,-12,6,32
91046,270,962,-125,-9,10,31
91047,279,968,-130,-9,11,30
91048,278,966,-126,-7,8,29
91049,274,969,-122,-7,4,30
91050,275,961,-130,-9,0,30
91051,271,961,-134,-11,-2,29
91052,281,951,-126,-11,-7,28
91053,273,954,-128,-12,-11,29
91054,270,953,-133,-14,-9,28
91055,272,954,-137,-15,-10,28
91056,272,951,-138,-16,-11,27
91057,269,950,-128,-14,-12,27
91058,275,951,-135,-14,-14,29
91059,270,945,-130,-11,-14,30
91060,271,948,-136,-15,-16,31
91061,274,953,-134,-20,-14,32
91062,278,946,-129,-18,-10,32
91063,279,955,-130,-20,-8,32
91064,280,957,-132,-21,-7,31
91065,274,956,-121,-20,-4,31
91066,277,959,-125,-20,-2,30
91067,272,963,-116,-20,-2,30
91068,277,965,-122,-23,-2,30
91069,271,954,-117,-19,-4,28
91070,276,959,-113,-19,-6,28
91071,272,956,-117,-24,-7,30
91072,267,961,-115,-24,-12,30
91073,272,955,-113,-18,-16,28
91074,274,960,-104,-21,-16,29
91075,263,955,-122,-26,-20,30
91076,270,960,-114,-25,-23,27
91077,270,955,-119,-30,-24,28
91078,271,955,-117,-30,-24,28
91079,271,951,-124,-33,-24,27
91080,274,953,-124,-34,-25,27
91081,272,954,-122,-35,-26,25
91082,267,957,-125,-35,-25,24
91083,270,956,-126,-36,-23,25
91084,272,952,-124,-36,-23,23
91085,275,962,-124,-34,-21,24
91086,273,960,-130,-35,-18,24
91087,279,956,-117,-34,-16,25
91088,269,952,-118,-34,-15,25
91089,277,951,-116,-34,-18,24
91090,282,955,-109,-35,-16,23
91091,275,953,-114,-35,-17,22
91092,271,956,-113,-36,-16,20
91093,275,960,-105,-35,-16,18
91094,265,954,-111,-35,-17,17
91095,270,964,-105,-35,-18,14
91096,271,964,-112,-33,-21,14
91097,278,968,-113,-31,-25,14
91098,272,964,-110,-30,-25,14
91099,273,971,-112,-30,-25,13
91100,272,967,-112,-25,-25,13
91101,272,968,-113,-27,-26,13
91102,269,969,-106,-27,-25,13
91103,282,967,-111,-25,-27,11
91104,271,959,-106,-24,-27,14
91105,265,961,-105,-25,-25,14
91106,269,964,-109,-28,-22,14
91107,267,957,-104,-27,-19,14
91108,276,960,-104,-26,-15,18
91109,266,961,-98,-28,-9,18
91110,270,961,-100,-27,-7,18
91111,268,961,-98,-25,-7,18
91112,271,960,-97,-22,-9,19
91113,264,965,-105,-25,-8,20
91114,271,973,-99,-23,-10,21
91115,274,967,-97,-20,-11,23
91116,271,962,-105,-25,-11,23
91117,269,958,-95,-14,-16,23
91118,273,958,-98,-12,-15,22
91119,272,959,-94,-14,-14,22
91120,268,965,-98,-13,-12,21
91121,271,964,-98,-11,-10,21
91122,271,957,-102,-8,-10,19
91123,279,957,-98,-6,-11,19
91124,274,956,-101,-8,-9,19
91125,264,952,-101,-7,-7,21
91126,268,957,-101,-8,-7,25
91127,275,953,-105,-4,-9,25
91128,264,949,-113,-11,-9,25
91129,276,954,-109,-6,-8,26
91130,265,958,-112,-6,-4,23
91131,275,955,-99,-2,-6,22
91132,268,962,-114,-22,-5,21
91133,271,957,-100,-6,-9,23
91134,264,957,-117,-19,-12,22
91135,272,959,-96,-2,-25,18
91136,286,956,-99,2,-30,23
91137,270,961,-104,-14,-24,22
91138,279,961,-101,-8,-26,21
91139,276,955,-90,-2,-28,23
91140,270,956,-96,-4,-30,22
91141,283,957,-101,-8,-30,21
91142,276,955,-100,-11,-32,20
91143,272,959,-100,-10,-37,18
91144,282,957,-98,-6,-40,17
91145,280,958,-100,-7,-44,17
91146,278,963,-97,-7,-46,18
91147,284,961,-97,-5,-47,21
91148,280,954,-99,-7,-48,20
91149,279,965,-102,-4,-47,21
91150,275,971,-103,-5,-45,22
91151,276,962,-108,0,-42,23
91152,282,966,-104,6,-41,25
91153,265,972,-107,7,-37,27
91154,255,960,-100,8,-33,25
91155,278,958,-84,21,-30,30
91156,286,960,-101,13,-23,27
91157,272,963,-89,16,-24,28
91158,276,958,-89,11,-25,28
91159,271,959,-90,5,-28,28
91160,274,961,-93,0,-28,26
91161,269,959,-98,2,-31,26
91162,262,964,-99,1,-32,25
91163,267,963,-96,2,-34,25
91164,273,967,-88,1,-35,25
91165,272,966,-92,1,-38,26
91166,268,966,-87,2,-40,28
91167,271,965,-93,1,-42,28
91168,273,966,-90,3,-44,28
91169,265,967,-83,2,-44,29
91170,269,966,-91,2,-46,28
91171,271,967,-79,2,-48,30
91172,265,960,-86,-1,-48,32
91173,271,960,-92,-2,-50,33
91174,267,959,-99,-4,-50,32
91175,266,956,-105,-7,-49,31
91176,263,964,-100,-9,-49,30
91177,258,963,-105,-8,-48,28
91178,266,969,-104,-3,-46,25
91179,267,966,-110,2,-44,22
91180,267,971,-105,4,-41,21
91181,269,958,-113,7,-39,20
91182,271,959,-108,9,-38,21
91183,275,961,-116,10,-37,20
91184,273,958,-123,13,-35,21
91185,272,966,-116,17,-32,23
91186,267,964,-115,18,-24,25
91187,269,964,-110,20,-23,25
91188,279,958,-107,19,-20,25
91189,273,961,-103,23,-20,25
91190,271,961,-108,25,-18,26
91191,266,959,-109,18,-15,28
91192,265,956,-104,14,-15,28
91193,268,956,-94,15,-16,28
91194,272,954,-92,16,-19,28
91195,269,955,-96,13,-22,27
91196,281,944,-88,10,-21,25
91197,269,954,-103,9,-23,23
91198,277,952,-103,6,-19,23
91199,274,955,-108,4,-18,23
91200,271,949,-99,5,-20,23
91201,270,958,-108,3,-21,23
91202,268,955,-110,9,-24,23
91203,269,959,-116,11,-23,26
91204,265,958,-105,11,-19,28
91205,258,956,-108,11,-12,33
91206,262,964,-111,11,-9,36
91207,263,952,-111,13,-7,38
91208,259,955,-112,10,-4,39
91209,255,947,-111,6,1,39
91210,264,949,-111,2,5,39
91211,268,948,-109,0,9,39
91212,270,947,-105,0,11,37
91213,264,946,-112,-2,10,37
91214,260,946,-114,-1,10,35
91215,274,952,-111,-2,8,35
91216,274,955,-115,-4,4,34
91217,275,956,-107,-4,5,35
91218,280,950,-111,-6,5,35
91219,274,957,-113,-7,4,36
91220,279,945,-110,-7,1,35
91221,287,947,-109,-7,-2,34
91222,281,946,-111,-10,-4,31
91223,278,953,-109,-13,-9,29
91224,279,948,-113,-14,-11,28
91225,280,942,-113,-13,-13,25
91226,277,950,-118,-14,-13,23
91227,286,955,-118,-13,-14,22
91228,280,957,-114,-13,-17,22
91229,292,945,-118,-13,-18,21
91230,290,950,-121,-14,-16,22
91231,296,950,-117,-16,-15,22
91232,291,949,-117,-16,-16,20
91233,287,949,-121,-17,-16,18
91234,297,947,-117,-16,-14,16
91235,290,949,-118,-16,-16,14
91236,295,952,-113,-15,-16,12
91237,304,965,-113,-12,-14,14
91238,301,964,-112,-11,-11,16
91239,303,963,-106,-9,-12,18
91240,303,966,-115,-8,-14,21
91241,306,962,-108,-9,-18,19
91242,299,960,-104,-9,-23,19
91243,304,958,-96,-11,-28,22
91244,298,962,-95,-11,-30,23
91245,300,964,-95,-11,-33,21
91246,286,955,-84,-12,-36,21
91247,292,964,-89,-13,-41,20
91248,285,965,-85,-14,-45,21
91249,287,964,-82,-14,-48,21
91250,286,960,-82,-14,-50,21
91251,280,964,-83,-15,-51,21
91252,281,959,-77,-18,-53,21
91253,277,963,-75,-21,-55,22
91254,274,963,-77,-22,-54,21
91255,276,963,-80,-23,-57,20
91256,277,960,-82,-23,-59,18
91257,270,959,-80,-21,-61,17
91258,272,964,-81,-21,-61,14
91259,272,960,-80,-18,-61,15
91260,265,964,-86,-16,-62,14
91261,267,970,-85,-16,-60,15
91262,267,967,-94,-14,-56,16
91263,270,962,-90,-12,-54,17
91264,264,963,-90,-12,-49,18
91265,260,962,-90,-11,-46,20
91266,263,965,-96,-9,-41,21
91267,262,967,-93,-4,-37,21
91268,261,966,-99,-7,-36,20
91269,259,966,-92,-7,-30,18
91270,265,961,-97,-4,-29,16
91271,267,965,-88,2,-30,16
91272,274,966,-82,2,-30,16
91273,271,964,-85,0,-30,14
91274,270,959,-81,0,-29,12
91275,268,964,-84,-2,-28,11
91276,271,963,-88,-3,-28,7
91277,277,966,-87,-1,-25,6
91278,277,965,-93,0,-21,4
91279,268,965,-94,2,-21,4
91280,269,969,-102,3,-18,3
91281,271,962,-101,11,-20,4
91282,276,964,-84,16,-18,7
91283,273,964,-97,14,-21,9
91284,280,963,-106,10,-19,11
91285,276,963,-98,14,-18,11
91286,269,959,-100,7,-14,14
91287,273,957,-97,11,-11,16
91288,280,954,-97,14,-11,18
91289,273,953,-93,14,-8,20
91290,274,961,-97,13,-5,20
91291,270,957,-94,14,-2,21
91292,272,959,-94,20,1,23
91293,273,953,-102,25,4,24
91294,277,950,-97,21,6,25
91295,277,948,-98,18,9,26
91296,270,954,-96,18,9,26
91297,276,955,-98,14,9,24
91298,281,948,-97,16,7,23
91299,281,945,-92,13,4,23
91300,281,953,-99,9,-1,22
91301,275,951,-98,6,-4,21
91302,278,949,-101,4,-6,21
91303,278,947,-93,7,-7,20
91304,281,952,-98,4,-7,21
91305,272,953,-98,0,-4,21
91306,272,955,-105,3,-4,21
91307,270,955,-109,0,-3,21
91308,282,957,-99,2,-4,23
91309,277,953,-108,2,-9,22
91310,281,954,-104,0,-9,21
91311,284,953,-109,0,-14,22
91312,289,952,-102,0,-17,22
91313,286,960,-101,-2,-18,22
91314,291,957,-107,-2,-20,23
91315,285,963,-105,-4,-21,24
91316,287,956,-97,-1,-22,23
91317,276,964,-114,-11,-18,23
91318,291,958,-101,-7,-20,23
91319,280,959,-102,-4,-22,21
91320,282,955,-101,-4,-23,21
91321,280,958,-94,3,-27,21
91322,274,963,-96,-4,-27,21
91323,277,957,-100,-6,-27,22
91324,274,959,-94,-4,-28,21
91325,276,961,-95,-4,-27,21
91326,275,963,-95,-4,-25,18
91327,276,963,-95,-3,-26,18
91328,276,959,-88,-4,-28,17
91329,278,960,-92,-5,-28,16
91330,278,957,-91,-4,-28,14
91331,269,964,-100,0,-30,14
91332,274,960,-99,-2,-30,14
91333,282,958,-95,-1,-29,15
91334,280,958,-97,-2,-28,16
91335,274,961,-100,-2,-29,16
91336,274,954,-97,-2,-26,16
91337,282,961,-95,-2,-28,16
91338,280,962,-97,-6,-26,17
91339,279,959,-88,0,-28,17
91340,275,959,-101,0,-27,17
91341,272,966,-90,-2,-26,16
91342,275,959,-100,0,-25,16
91343,278,960,-95,-1,-25,16
91344,278,960,-93,-1,-23,16
91345,278,961,-88,2,-22,19
91346,273,957,-94,0,-23,19
91347,272,955,-88,0,-22,20
91348,278,958,-86,-2,-20,18
91349,272,961,-87,0,-21,18
91350,277,957,-90,0,-23,18
91351,282,966,-93,1,-23,18
91352,273,963,-90,4,-21,19
91353,274,960,-90,6,-22,19
91354,269,965,-87,4,-23,19
91355,279,957,-85,4,-24,21
91356,273,961,-86,6,-27,22
91357,276,956,-89,4,-27,20
91358,276,962,-90,2,-26,21
91359,278,956,-95,1,-25,21
91360,272,954,-91,0,-22,20
91361,272,956,-97,0,-21,18
91362,272,958,-97,2,-20,19
91363,274,954,-99,3,-18,21
91364,273,966,-99,3,-17,18
91365,276,961,-97,4,-14,19
91366,282,956,-98,4,-14,21
91367,277,964,-95,6,-14,21
91368,280,960,-100,7,-14,21
91369,276,950,-98,7,-15,21
91370,277,956,-97,8,-18,21
91371,280,962,-100,5,-17,21
91372,273,961,-95,5,-18,21
91373,274,953,-90,7,-19,21
91374,279,961,-98,7,-18,20
91375,280,964,-93,8,-19,21
91376,278,959,-101,7,-18,20
91377,274,957,-96,9,-16,19
91378,276,954,-94,8,-16,20
91379,282,955,-97,7,-16,18
91380,285,957,-100,4,-17,18
91381,283,962,-98,5,-19,18
91382,286,957,-94,6,-21,17
91383,279,955,-96,5,-21,18
91384,280,955,-92,5,-21,18
91385,280,955,-95,4,-20,20
91386,276,962,-101,3,-18,18
91387,276,960,-97,3,-18,19
91388,278,960,-94,3,-18,17
91389,277,955,-98,2,-14,18
91390,277,955,-95,1,-13,17
91391,278,956,-95,0,-15,17
91392,268,958,-93,-1,-15,18
91393,283,961,-94,0,-14,18
91394,274,961,-95,-1,-13,17
91395,277,958,-96,-2,-13,20
91396,275,947,-98,1,-14,18
91397,281,955,-92,1,-14,18
91398,273,955,-92,2,-14,19
91399,278,958,-86,0,-14,18
91400,277,956,-94,0,-12,19
91401,281,950,-100,0,-13,20
91402,275,960,-107,-2,-15,19
91403,271,962,-92,-4,-16,16
91404,276,962,-94,-3,-18,16
91405,275,963,-99,-3,-17,16
91406,278,959,-95,-4,-16,15
91407,276,960,-101,-4,-17,15
91408,279,957,-94,-5,-19,14
91409,277,958,-95,-5,-23,14
91410,281,958,-89,-4,-24,15
91411,281,957,-93,-4,-23,15
91412,282,959,-86,-4,-22,15
91413,274,958,-91,-3,-21,15
91414,284,955,-86,-6,-23,13
91415,284,961,-96,-5,-26,13
91416,282,954,-91,-6,-28,12
91417,285,954,-96,-6,-28,12
91418,283,965,-93,-5,-28,13
91419,290,959,-96,0,-29,14
91420,275,958,-90,0,-30,13
91421,283,964,-99,2,-31,12
91422,286,963,-109,-1,-30,14
91423,282,960,-96,0,-28,14
91424,285,957,-100,2,-28,14
91425,281,957,-101,2,-28,14
91426,281,958,-101,0,-31,14
91427,285,962,-99,0,-35,14
91428,285,959,-99,0,-34,14
91429,289,957,-94,0,-35,11
91430,289,962,-95,0,-35,11
91431,283,959,-93,2,-37,11
91432,284,964,-88,4,-38,9
91433,288,955,-89,5,-39,9
91434,284,957,-90,4,-41,10
91435,283,961,-89,0,-44,10
91436,283,954,-96,0,-45,11
91437,280,959,-88,1,-47,14
91438,279,961,-90,3,-46,14
91439,280,959,-84,3,-48,13
91440,278,957,-91,3,-48,14
91441,280,955,-85,1,-48,14
91442,277,952,-90,2,-48,16
91443,277,962,-88,2,-47,17
91444,277,959,-85,2,-47,16
91445,276,966,-87,4,-47,18
91446,276,966,-93,5,-45,19
91447,275,960,-90,6,-45,19
91448,268,963,-89,7,-44,19
91449,275,963,-87,7,-43,17
91450,269,961,-94,4,-42,18
91451,263,961,-100,2,-43,16
91452,271,961,-87,2,-43,14
91453,272,959,-90,3,-44,14
91454,267,961,-84,2,-42,14
91455,275,955,-87,0,-44,11
91456,266,957,-88,2,-44,11
91457,269,958,-96,2,-43,10
91458,265,961,-95,2,-43,9
91459,267,958,-97,4,-42,9
91460,263,961,-99,4,-41,9
91461,261,957,-94,4,-39,9
91462,265,959,-96,7,-37,9
91463,266,958,-97,9,-35,9
91464,276,960,-90,4,-35,9
91465,258,959,-96,2,-31,9
91466,265,958,-97,2,-30,7
91467,269,962,-92,4,-31,8
91468,271,956,-95,7,-31,9
91469,276,959,-89,9,-35,9
91470,275,958,-88,8,-32,10
91471,277,958,-93,5,-32,10
91472,278,955,-96,3,-32,11
91473,276,955,-94,1,-28,11
91474,273,960,-94,1,-24,11
91475,274,956,-90,2,-22,11
91476,277,964,-92,6,-22,9
91477,276,964,-95,7,-18,11
91478,277,958,-93,8,-16,11
91479,274,961,-97,7,-16,13
91480,279,964,-93,2,-16,15
91481,280,957,-93,0,-15,15
91482,281,957,-102,-1,-16,16
91483,278,964,-94,5,-19,17
91484,278,955,-92,6,-18,16
91485,280,960,-100,4,-19,15
91486,275,957,-93,0,-24,14
91487,270,957,-96,-2,-25,14
91488,267,956,-101,-4,-27,13
91489,275,953,-89,-5,-27,10
91490,274,954,-95,-2,-27,11
91491,276,960,-88,-1,-28,14
91492,274,963,-94,2,-28,14
91493,277,959,-85,4,-30,16
91494,273,959,-86,4,-30,17
91495,276,962,-91,2,-28,18
91496,271,961,-91,2,-28,16
91497,266,958,-95,3,-28,16
91498,268,965,-94,2,-26,15
91499,275,963,-89,4,-26,14
91500,270,959,-91,4,-26,13
91501,272,964,-92,6,-25,14
91502,274,960,-96,6,-23,14
91503,275,964,-93,4,-23,14
91504,277,966,-95,4,-21,12
91505,278,960,-101,4,-22,13
91506,270,961,-88,4,-18,13
91507,276,962,-94,2,-18,12
91508,268,957,-97,4,-19,11
91509,270,961,-91,4,-21,12
91510,271,958,-90,3,-23,11
91511,272,963,-91,2,-24,12
91512,269,965,-97,2,-24,13
91513,266,966,-96,4,-28,14
91514,275,967,-97,3,-27,16
91515,271,962,-95,2,-26,14
91516,270,960,-96,3,-26,13
91517,271,960,-95,4,-27,13
91518,263,964,-89,3,-26,13
91519,270,963,-92,4,-26,12
91520,269,961,-89,5,-25,11
91521,266,955,-91,6,-25,11
91522,267,962,-89,8,-23,11
91523,268,961,-93,9,-23,12
91524,261,961,-93,8,-24,13
91525,268,961,-98,7,-25,12
91526,269,964,-96,9,-22,12
91527,275,963,-99,7,-21,14
91528,273,961,-89,10,-21,13
91529,274,957,-97,9,-23,14
91530,275,954,-96,8,-25,13
91531,276,952,-93,4,-26,13
91532,280,954,-90,0,-25,11
91533,273,954,-88,0,-25,11
91534,273,958,-101,-2,-24,11
91535,270,959,-89,3,-25,11
91536,267,960,-93,6,-26,10
91537,268,964,-91,7,-24,10
91538,266,962,-94,3,-21,11
91539,271,961,-99,3,-18,11
91540,275,958,-101,4,-16,9
91541,276,963,-97,5,-14,9
91542,267,966,-101,4,-14,9
91543,270,960,-96,5,-15,10
91544,282,962,-91,4,-16,10
91545,277,966,-91,4,-19,11
91546,282,964,-91,4,-23,12
91547,276,964,-95,5,-25,12
91548,278,961,-92,4,-27,13
91549,277,963,-96,3,-26,14
91550,278,962,-90,2,-27,14
91551,276,960,-97,2,-28,14
91552,274,965,-98,1,-29,12
91553,279,956,-95,0,-28,13
91554,271,959,-94,0,-26,14
91555,272,957,-98,0,-25,14
91556,272,959,-93,1,-25,14
91557,270,957,-93,1,-24,14
91558,276,964,-89,2,-26,12
91559,272,959,-95,3,-28,12
91560,272,963,-97,3,-32,14
91561,268,962,-97,4,-35,13
91562,279,964,-94,4,-34,12
91563,266,971,-93,4,-35,13
91564,271,966,-94,5,-36,14
91565,262,966,-101,5,-35,14
91566,272,963,-96,6,-32,14
91567,269,962,-93,8,-30,16
91568,258,967,-94,7,-29,13
91569,262,961,-99,7,-31,12
91570,260,953,-90,5,-32,12
91571,270,961,-85,2,-34,13
91572,270,965,-88,1,-36,11
91573,269,957,-87,0,-39,12
91574,267,964,-87,0,-37,14
91575,272,956,-86,1,-37,14
91576,270,956,-92,3,-37,14
91577,270,962,-87,3,-35,13
91578,269,963,-88,2,-34,12
91579,265,958,-100,2,-34,14
91580,266,960,-102,3,-32,12
91581,262,967,-91,2,-32,13
91582,269,959,-96,3,-31,13
91583,264,956,-94,5,-29,15
91584,263,963,-92,5,-27,14
91585,269,962,-97,4,-24,14
91586,268,964,-98,4,-24,14
91587,269,963,-98,4,-23,14
91588,264,962,-94,4,-23,15
91589,262,964,-92,7,-21,16
91590,272,958,-99,6,-19,16
91591,266,963,-90,7,-19,18
91592,273,959,-93,8,-19,17
91593,267,961,-99,6,-20,18
91594,265,956,-93,5,-17,18
91595,273,959,-101,4,-18,19
91596,271,966,-95,4,-18,19
91597,268,959,-96,6,-16,20
91598,274,960,-98,5,-17,18
91599,264,961,-93,6,-17,18
91600,268,957,-100,4,-21,18
91601,265,964,-89,5,-24,18
91602,266,958,-97,4,-23,16
91603,270,967,-101,2,-24,16
91604,265,963,-92,4,-25,16
91605,274,961,-103,4,-25,16
91606,268,961,-98,2,-23,17
91607,270,963,-97,3,-25,16
91608,270,957,-94,3,-23,17
91609,269,962,-103,4,-23,19
91610,264,958,-99,3,-21,19
91611,267,956,-99,4,-22,20
91612,271,963,-96,4,-21,19
91613,268,961,-89,4,-21,20
91614,261,958,-95,4,-21,19
91615,264,960,-93,4,-21,19
91616,267,962,-90,4,-23,19
91617,270,966,-97,0,-23,18
91618,272,957,-99,2,-21,18
91619,268,961,-97,4,-20,18
91620,265,965,-96,4,-19,18
91621,270,958,-97,4,-18,18
91622,266,961,-93,2,-17,18
91623,265,967,-91,2,-17,18
91624,272,957,-93,2,-16,18
91625,265,961,-89,2,-19,18
91626,271,961,-99,1,-19,17
91627,273,962,-91,0,-20,17
91628,264,960,-91,1,-21,17
91629,269,962,-96,2,-21,17
91630,265,965,-96,2,-21,16
91631,271,965,-96,2,-23,16
91632,268,961,-93,2,-24,16
91633,265,960,-91,0,-23,18
91634,268,959,-83,0,-22,17
91635,268,963,-91,2,-21,18
91636,264,962,-91,2,-21,18
91637,265,965,-99,0,-22,18
91638,263,965,-94,0,-21,16
91639,268,959,-88,0,-18,16
91640,265,965,-95,2,-18,16
91641,264,963,-90,3,-18,17
91642,267,957,-93,4,-18,18
91643,267,961,-99,4,-18,19
91644,264,962,-97,3,-17,19
91645,267,962,-92,4,-16,20
91646,269,960,-88,4,-16,20
91647,268,960,-85,4,-16,21
91648,260,963,-100,3,-16,20
91649,265,960,-97,2,-16,19
91650,265,961,-91,1,-14,19
91651,262,959,-99,2,-13,18
91652,264,964,-93,0,-12,18
91653,275,966,-94,2,-13,16
91654,265,960,-89,3,-11,16
91655,274,960,-100,3,-11,16
91656,276,970,-93,4,-12,14
91657,279,959,-93,5,-13,14
91658,280,964,-91,6,-14,16
91659,272,964,-97,6,-17,16
91660,275,957,-99,7,-20,17
91661,276,960,-95,4,-21,19
91662,269,960,-93,3,-21,19
91663,274,959,-96,2,-22,20
91664,267,961,-92,3,-23,19
91665,268,951,-94,2,-23,21
91666,264,958,-93,3,-23,21
91667,264,957,-94,2,-25,20
91668,261,961,-95,3,-25,21
91669,264,957,-98,2,-25,20
91670,257,958,-88,2,-22,20
91671,262,959,-91,2,-20,19
91672,262,955,-89,3,-18,17
91673,269,963,-88,4,-17,15
91674,270,961,-92,3,-16,15
91675,268,957,-93,5,-16,14
91676,270,959,-93,5,-18,13
91677,273,968,-89,4,-20,13
91678,274,963,-93,5,-19,14
91679,276,962,-89,4,-20,15
91680,272,963,-89,4,-20,16
91681,274,962,-92,4,-23,17
91682,269,964,-95,3,-23,16
91683,274,960,-91,2,-25,14
91684,271,966,-96,4,-25,15
91685,274,961,-96,4,-25,15
91686,274,964,-90,3,-23,15
91687,274,967,-88,2,-22,16
91688,270,960,-93,4,-22,17
91689,271,960,-97,4,-23,18
91690,272,963,-91,4,-22,18
91691,269,957,-91,4,-23,18
91692,268,961,-89,3,-25,20
91693,264,956,-89,2,-26,20
91694,267,955,-95,0,-25,21
91695,266,965,-91,1,-27,21
91696,264,962,-92,3,-27,21
91697,257,961,-85,4,-30,18
91698,259,965,-95,2,-28,17
91699,267,961,-95,4,-28,17
91700,261,967,-90,5,-24,15
91701,264,965,-89,6,-23,16
91702,263,970,-96,7,-21,16
91703,267,966,-94,7,-21,16
91704,262,967,-94,5,-20,16
91705,264,966,-96,4,-20,16
91706,257,958,-94,4,-19,18
91707,262,958,-87,2,-18,16
91708,263,959,-93,3,-19,17
91709,266,958,-92,3,-21,18
91710,269,958,-91,3,-20,18
91711,264,957,-86,4,-20,18
91712,261,959,-87,3,-21,19
91713,268,956,-94,2,-22,18
91714,267,963,-88,1,-24,19
91715,268,960,-92,0,-27,21
91716,266,960,-93,-1,-26,20
91717,274,959,-91,0,-25,18
91718,269,957,-86,1,-25,19
91719,269,965,-95,2,-25,21
91720,263,962,-91,1,-23,20
91721,267,964,-92,1,-23,20
91722,260,955,-96,2,-23,21
91723,266,964,-95,3,-23,21
91724,274,960,-98,2,-23,21
91725,268,966,-100,2,-21,21
91726,264,963,-97,2,-19,21
91727,262,964,-89,3,-18,21
91728,271,962,-98,5,-18,20
91729,269,962,-94,6,-18,19
91730,267,960,-93,5,-18,19
91731,267,964,-92,5,-16,20
91732,268,958,-89,7,-18,21
91733,264,968,-101,6,-18,21
91734,272,966,-97,4,-18,20
91735,272,972,-92,3,-20,21
91736,269,960,-93,2,-21,19
91737,270,961,-87,2,-22,19
91738,266,958,-94,2,-22,20
91739,270,959,-92,3,-23,20
91740,268,962,-96,3,-24,21
91741,269,961,-92,4,-23,21
91742,263,966,-96,4,-21,21
91743,265,965,-93,2,-21,20
91744,266,959,-91,4,-21,20
91745,272,959,-90,4,-21,21
91746,267,957,-94,5,-21,21
91747,268,961,-93,7,-20,21
91748,267,956,-86,7,-18,21
91749,269,965,-92,7,-18,21
91750,269,964,-96,7,-21,22
91751,269,964,-93,4,-22,22
91752,268,961,-97,0,-20,23
91753,268,962,-85,0,-20,23
91754,271,963,-91,0,-20,20
91755,262,964,-85,4,-18,19
91756,266,959,-94,7,-20,20
91757,260,967,-86,9,-20,18
91758,269,966,-88,7,-22,19
91759,268,959,-90,5,-23,21
91760,271,958,-90,3,-22,21
91761,275,957,-87,2,-20,21
91762,266,962,-89,2,-18,19
91763,269,962,-89,2,-19,18
91764,268,965,-93,3,-20,18
91765,266,966,-98,2,-21,18
91766,272,967,-88,3,-20,18
91767,274,963,-94,4,-21,17
91768,273,961,-91,6,-22,17
91769,265,966,-94,7,-18,19
91770,263,960,-100,6,-16,20
91771,267,968,-97,7,-15,21
91772,267,965,-88,8,-15,21
91773,266,964,-86,6,-15,21
91774,269,955,-88,6,-18,22
91775,268,965,-91,6,-19,22
91776,269,963,-88,5,-21,22
91777,269,954,-87,4,-21,22
91778,274,965,-94,4,-21,21
91779,275,961,-88,6,-21,21
91780,269,967,-88,7,-21,22
91781,272,962,-99,7,-21,19
91782,269,962,-95,6,-19,18
91783,264,958,-93,5,-19,20
91784,267,955,-91,5,-20,20
91785,272,963,-96,5,-21,18
91786,265,958,-96,4,-19,18
91787,269,963,-94,7,-18,18
91788,269,961,-92,7,-18,19
91789,269,965,-95,7,-18,18
91790,272,966,-102,7,-18,19
91791,272,959,-93,8,-17,22
91792,273,957,-99,7,-15,21
91793,274,967,-87,5,-15,22
91794,275,959,-88,6,-16,21
91795,275,952,-91,5,-16,21
91796,271,955,-91,4,-17,18
91797,274,959,-94,4,-16,18
91798,264,954,-87,5,-16,19
91799,266,955,-91,5,-16,16
91800,262,958,-92,4,-20,16
91801,262,960,-90,4,-21,16
91802,265,962,-95,3,-21,17
91803,270,957,-93,4,-21,17
91804,263,955,-97,3,-20,16
91805,268,958,-95,2,-19,16
91806,264,959,-91,3,-18,14
91807,270,968,-97,2,-17,14
91808,267,963,-94,2,-15,14
91809,274,963,-94,4,-16,13
91810,272,968,-90,4,-16,13
91811,275,964,-94,5,-18,14
91812,275,961,-84,4,-20,16
91813,274,962,-85,5,-20,17
91814,273,969,-88,4,-21,18
91815,276,964,-92,5,-23,18
91816,274,965,-95,4,-23,18
91817,278,961,-91,4,-24,19
91818,271,965,-91,4,-26,20
91819,271,968,-98,3,-26,19
91820,276,957,-94,3,-25,20
91821,274,961,-98,4,-25,18
91822,269,957,-91,3,-26,18
91823,265,957,-94,3,-25,18
91824,265,966,-87,4,-24,18
91825,261,960,-94,4,-25,18
91826,266,963,-94,5,-24,18
91827,268,964,-94,5,-27,18
91828,270,961,-94,5,-27,18
91829,263,963,-89,4,-27,16
91830,264,960,-90,4,-26,14
91831,265,964,-90,4,-27,14
91832,265,962,-93,5,-26,14
91833,270,961,-96,4,-23,14
91834,261,959,-90,5,-21,14
91835,265,961,-88,5,-21,14
91836,265,961,-83,7,-20,14
91837,266,959,-84,6,-21,14
91838,266,965,-90,5,-20,15
91839,264,957,-84,7,-19,15
91840,264,960,-87,5,-21,16
91841,268,954,-93,5,-21,16
91842,263,956,-94,4,-19,16
91843,271,965,-91,4,-20,15
91844,266,963,-82,3,-20,15
91845,264,958,-96,3,-18,16
91846,266,961,-90,3,-19,14
91847,266,959,-96,2,-20,14
91848,275,961,-96,2,-19,15
91849,272,959,-92,3,-19,16
91850,269,957,-88,1,-18,16
91851,266,969,-92,0,-18,17
91852,265,963,-95,2,-18,18
91853,266,962,-88,2,-18,17
91854,263,962,-93,3,-19,18
91855,263,966,-101,3,-20,18
91856,268,965,-94,3,-20,16
91857,262,960,-91,2,-18,17
91858,264,956,-102,3,-18,18
91859,267,957,-99,2,-18,18
91860,265,960,-92,2,-18,17
91861,272,961,-98,3,-18,16
91862,270,959,-99,3,-18,15
91863,273,962,-95,4,-18,15
91864,270,957,-89,5,-18,16
91865,273,961,-97,4,-18,15
91866,266,957,-91,4,-18,16
91867,274,956,-92,4,-19,18
91868,274,958,-98,3,-18,18
91869,273,956,-92,4,-18,19
91870,266,957,-95,3,-18,18
91871,271,959,-90,2,-19,18
91872,268,960,-97,2,-20,19
91873,274,962,-92,1,-21,20
91874,266,961,-88,0,-21,20
91875,263,967,-92,0,-23,18
91876,262,957,-83,1,-23,18
91877,271,961,-91,2,-23,18
91878,270,965,-93,4,-23,18
91879,269,958,-94,1,-21,18
91880,270,961,-91,3,-21,18
91881,270,961,-97,2,-21,20
91882,267,958,-89,3,-21,19
91883,267,972,-86,2,-21,19
91884,262,956,-89,2,-21,18
91885,263,962,-90,3,-23,19
91886,268,959,-81,4,-22,18
91887,268,961,-88,4,-25,18
91888,263,965,-91,2,-25,19
91889,268,962,-92,3,-28,19
91890,274,960,-90,2,-25,18
91891,269,961,-93,2,-23,18
91892,266,967,-92,3,-23,18
91893,269,964,-88,3,-23,17
91894,268,968,-94,3,-22,18
91895,265,970,-91,3,-21,17
91896,268,963,-92,3,-22,16
91897,265,966,-90,2,-22,16
91898,264,960,-90,2,-21,18
91899,263,964,-90,4,-21,17
91900,261,961,-91,4,-19,17
91901,262,962,-86,4,-18,18
91902,262,961,-90,4,-18,18
91903,263,962,-94,5,-18,17
91904,266,961,-88,5,-16,16
91905,272,964,-93,6,-18,16
91906,267,961,-91,6,-17,16
91907,269,958,-90,6,-17,16
91908,267,963,-92,5,-17,16
91909,275,958,-94,4,-21,16
91910,271,963,-92,4,-21,17
91911,268,963,-91,3,-21,18
91912,270,963,-91,2,-21,18
91913,269,963,-93,4,-24,18
91914,267,962,-86,3,-24,18
91915,271,963,-93,2,-23,17
91916,270,962,-92,3,-23,16
91917,272,967,-89,4,-23,16
91918,264,963,-92,2,-23,18
91919,270,957,-97,4,-23,16
91920,267,959,-92,6,-25,18
91921,264,964,-90,6,-23,18
91922,265,960,-95,4,-19,16
91923,266,961,-90,6,-19,16
91924,272,957,-91,6,-18,16
91925,267,967,-94,4,-18,16
91926,267,962,-98,4,-17,16
91927,265,957,-93,4,-18,16
91928,267,962,-90,3,-20,18
91929,268,961,-98,4,-18,18
91930,271,955,-95,4,-19,16
91931,264,963,-89,4,-20,16
91932,268,965,-94,3,-20,15
91933,265,960,-92,4,-21,15
91934,263,957,-87,5,-21,16
91935,268,957,-94,5,-21,16
91936,269,965,-90,4,-21,16
91937,263,958,-93,3,-20,16
91938,262,960,-92,4,-18,15
91939,267,961,-91,4,-18,15
91940,266,960,-94,3,-18,16
91941,267,961,-95,4,-18,15
91942,269,962,-93,4,-18,16
91943,263,961,-96,4,-17,16
91944,265,963,-80,4,-16,16
91945,269,960,-88,4,-16,16
91946,267,964,-95,5,-17,16
91947,268,964,-86,6,-18,16
91948,266,969,-88,5,-18,17
91949,266,962,-79,5,-17,19
91950,267,968,-93,5,-16,19
91951,267,956,-88,4,-16,20
91952,269,968,-94,4,-18,20
91953,269,963,-90,6,-18,21
91954,265,965,-92,7,-16,18
91955,265,965,-88,7,-17,21
91956,277,963,-92,7,-18,21
91957,271,967,-92,5,-16,20
91958,268,960,-93,4,-16,19
91959,271,965,-90,5,-16,21
91960,267,955,-98,6,-18,22
91961,272,963,-88,5,-17,23
91962,269,961,-94,5,-18,22
91963,272,960,-85,6,-21,23
91964,265,962,-97,8,-22,23
91965,265,959,-95,8,-23,21
91966,266,958,-92,8,-21,21
91967,267,962,-91,9,-23,21
91968,262,960,-88,9,-21,21
91969,262,962,-88,10,-21,20
91970,263,961,-86,10,-21,20
91971,262,966,-91,9,-19,18
91972,270,961,-86,9,-18,18
91973,262,961,-86,8,-18,19
91974,267,964,-87,8,-17,19
91975,263,964,-93,7,-18,19
91976,272,967,-77,6,-18,19
91977,266,958,-89,7,-18,19
91978,267,962,-90,5,-18,21
91979,272,959,-91,6,-19,20
91980,273,961,-87,5,-19,21
91981,267,959,-86,5,-20,21
91982,271,963,-91,4,-21,20
91983,265,960,-90,4,-23,20
91984,263,958,-87,3,-23,20
91985,269,959,-87,3,-23,19
91986,267,959,-92,4,-24,20
91987,264,957,-90,4,-22,17
91988,265,960,-97,4,-21,18
91989,263,958,-95,5,-20,18
91990,267,963,-95,5,-21,17
91991,270,959,-97,7,-18,18
91992,269,959,-94,7,-18,18
91993,270,959,-94,5,-18,19
91994,268,963,-90,5,-15,18
91995,269,961,-96,4,-16,18
91996,265,958,-96,4,-18,18
91997,269,964,-98,5,-20,19
91998,270,964,-89,4,-21,17
91999,271,962,-94,5,-21,18
92000,264,963,-97,5,-20,18
92001,266,961,-88,6,-22,17
92002,267,961,-94,7,-21,16
92003,264,961,-96,4,-22,16
92004,268,962,-97,4,-24,16
92005,270,956,-91,3,-23,16
92006,276,964,-95,3,-23,17
92007,264,962,-94,3,-23,18
92008,270,961,-88,4,-22,17
92009,267,961,-96,3,-22,18
92010,268,964,-96,4,-22,18
92011,269,968,-89,4,-23,18
92012,275,961,-93,2,-23,17
92013,264,962,-89,3,-22,18
92014,268,966,-95,2,-23,18
92015,271,959,-100,3,-22,18
92016,265,965,-88,3,-21,18
92017,266,965,-86,4,-22,18
92018,267,963,-94,3,-21,17
92019,265,963,-90,3,-21,16
92020,267,964,-91,2,-21,16
92021,261,960,-88,4,-22,16
92022,264,959,-92,3,-22,16
92023,264,964,-94,2,-22,17
92024,271,959,-85,2,-22,16
92025,265,959,-90,4,-23,17
92026,263,961,-86,2,-21,19
92027,265,960,-88,2,-22,19
92028,266,959,-89,2,-22,19
92029,267,959,-94,0,-21,19
92030,271,964,-89,0,-21,18
92031,264,961,-93,2,-22,19
92032,270,966,-91,3,-21,18
92033,270,962,-93,4,-19,19
92034,260,963,-89,4,-20,18
92035,267,955,-88,4,-21,18
92036,268,963,-86,4,-19,18
92037,264,959,-95,4,-18,18
92038,267,964,-93,5,-16,18
92039,266,964,-92,4,-18,18
92040,266,960,-98,2,-20,18
92041,267,965,-94,3,-18,17
92042,274,967,-95,3,-16,17
92043,269,958,-90,4,-18,16
92044,269,961,-92,5,-21,16
92045,271,965,-95,4,-20,18
92046,268,959,-84,4,-19,17
92047,272,964,-90,5,-21,16
92048,267,969,-89,6,-21,16
92049,266,960,-91,4,-21,18
92050,265,958,-90,4,-23,19
92051,266,960,-90,4,-24,20
92052,259,958,-86,3,-25,19
92053,267,967,-89,2,-25,18
92054,266,962,-89,1,-25,18
92055,269,965,-86,0,-24,18
92056,262,959,-91,2,-23,18
92057,266,960,-86,2,-23,18
92058,266,964,-90,2,-23,19
92059,271,960,-94,2,-23,19
92060,267,963,-91,4,-22,19
92061,265,962,-90,4,-20,20
92062,265,964,-88,3,-18,19
92063,263,965,-99,4,-18,19
92064,268,965,-90,6,-17,18
92065,254,954,-90,4,-18,18
92066,262,965,-96,6,-18,17
92067,265,960,-90,6,-19,20
92068,269,962,-90,4,-18,18
92069,271,968,-89,7,-20,18
92070,271,962,-92,6,-21,18
92071,271,959,-97,5,-22,18
92072,272,955,-90,4,-21,18
92073,272,959,-88,4,-23,19
92074,281,955,-91,2,-22,18
92075,263,955,-86,2,-25,18
92076,265,956,-88,1,-28,19
92077,267,960,-90,1,-28,18
92078,260,958,-88,1,-30,19
92079,263,959,-91,0,-29,18
92080,265,962,-93,1,-28,16
92081,267,963,-91,2,-25,16
92082,259,957,-86,4,-23,16
92083,268,965,-99,4,-23,16
92084,264,963,-98,5,-22,16
92085,266,968,-93,6,-21,16
92086,269,967,-85,5,-18,17
92087,265,960,-90,6,-16,19
92088,272,958,-88,5,-17,19
92089,273,962,-86,5,-18,20
92090,266,960,-92,4,-18,20
92091,273,958,-87,5,-19,21
92092,270,966,-92,7,-21,19
92093,271,965,-97,7,-22,21
92094,263,958,-88,7,-21,21
92095,265,961,-93,8,-22,21
92096,263,964,-100,8,-22,20
92097,272,961,-86,8,-21,20
92098,267,958,-91,7,-22,22
92099,268,967,-89,7,-23,24
92100,272,960,-95,4,-21,24
92101,265,960,-92,6,-18,23
92102,267,958,-86,6,-18,23
92103,268,960,-86,8,-19,23
92104,268,959,-90,7,-21,23
92105,275,972,-94,7,-22,21
92106,267,967,-92,7,-23,21
92107,267,965,-87,8,-23,21
92108,270,974,-89,9,-24,21
92109,264,967,-89,10,-24,21
92110,259,970,-89,9,-23,20
92111,265,967,-85,9,-23,20
92112,265,964,-93,9,-21,21
92113,264,959,-89,9,-21,20
92114,261,966,-88,9,-21,21
92115,264,962,-90,9,-23,23
92116,268,960,-93,9,-23,22
92117,265,959,-96,9,-23,22
92118,264,955,-94,7,-20,23
92119,268,957,-95,7,-18,21
92120,266,960,-104,7,-18,20
92121,271,957,-94,6,-16,20
92122,267,959,-92,5,-16,21
92123,272,961,-85,5,-16,20
92124,269,968,-93,6,-16,20
92125,271,962,-92,7,-17,19
92126,276,960,-95,6,-20,19
92127,276,959,-95,5,-21,20
92128,267,957,-99,4,-24,19
92129,270,962,-99,5,-25,18
92130,261,966,-97,6,-25,19
92131,271,962,-101,6,-26,18
92132,264,965,-99,5,-24,18
92133,267,960,-98,5,-23,19
92134,272,967,-94,5,-22,18
92135,271,968,-96,4,-19,18
92136,278,965,-95,4,-17,17
92137,276,966,-89,7,-17,18
92138,273,961,-88,7,-21,18
92139,271,963,-89,9,-23,15
92140,269,960,-93,5,-24,16
92141,265,960,-93,7,-27,17
92142,266,957,-91,8,-28,16
92143,267,956,-90,5,-29,16
92144,271,956,-92,4,-28,16
92145,275,959,-92,4,-28,16
92146,273,964,-98,4,-28,14
92147,274,966,-94,7,-28,14
92148,274,961,-90,8,-29,15
92149,275,965,-94,8,-31,15
92150,270,961,-95,8,-30,16
92151,277,955,-88,9,-29,17
92152,273,961,-91,9,-25,18
92153,268,959,-88,9,-23,20
92154,262,955,-93,9,-23,18
92155,263,957,-93,9,-23,18
92156,261,961,-95,9,-21,17
92157,266,963,-87,8,-18,16
92158,266,957,-93,8,-20,16
92159,267,963,-95,9,-21,17
92160,269,966,-92,10,-22,17
92161,259,968,-96,10,-23,16
92162,268,975,-92,10,-25,17
92163,274,964,-96,9,-27,18
92164,279,966,-86,9,-28,17
92165,274,958,-82,9,-28,16
92166,278,958,-87,7,-30,16
92167,271,957,-91,4,-33,16
92168,275,962,-91,3,-37,16
92169,266,962,-93,4,-43,16
92170,269,956,-89,3,-44,19
92171,266,964,-87,3,-41,23
92172,271,958,-90,4,-37,23
92173,261,966,-91,7,-37,23
92174,259,967,-89,7,-38,23
92175,264,965,-98,9,-37,23
92176,266,963,-101,7,-36,21
92177,266,962,-89,7,-32,21
92178,270,965,-97,8,-30,21
92179,262,966,-96,8,-29,19
92180,269,972,-100,8,-28,18
92181,264,968,-92,7,-29,17
92182,265,964,-97,7,-27,16
92183,267,968,-93,6,-23,17
92184,265,963,-90,6,-23,17
92185,264,952,-94,7,-23,18
92186,264,952,-90,6,-22,20
92187,266,954,-96,7,-23,21
92188,274,952,-89,8,-23,21
92189,265,957,-92,7,-24,21
92190,262,954,-91,8,-25,22
92191,269,951,-91,9,-26,21
92192,272,953,-95,9,-30,20
92193,271,958,-87,11,-32,21
92194,268,952,-84,10,-28,21
92195,257,959,-95,10,-25,22
92196,263,961,-97,9,-25,23
92197,262,959,-90,10,-25,21
92198,256,952,-87,11,-22,21
92199,264,960,-92,9,-18,21
92200,252,966,-93,7,-16,21
92201,256,962,-96,7,-14,21
92202,264,963,-89,6,-16,23
92203,264,956,-94,5,-17,23
92204,265,962,-90,7,-17,23
92205,262,961,-107,5,-16,21
92206,270,962,-98,5,-14,21
92207,270,971,-91,4,-14,21
# samples=4169
# gaps=0
