# falldetect-gkl fd_studio v1
# label=walking
# mount=neck
# subject=s01
# started=2026-09-20T22:47:24
# units=accel milli-g, gyro deci-dps
# firmware=unknown
# notes=
seq,ax,ay,az,gx,gy,gz
65915,245,7,983,1,-29,18
65916,246,3,987,3,-22,18
65917,237,9,987,7,-12,19
65918,244,7,996,7,-11,18
65919,240,11,994,5,-17,18
65920,241,9,993,2,-25,18
65921,246,10,991,2,-28,20
65922,245,9,982,3,-25,19
65923,243,4,990,5,-19,18
65924,243,9,990,7,-14,18
65925,237,7,985,6,-17,18
65926,240,3,990,4,-20,18
65927,245,6,988,4,-23,18
65928,243,6,987,4,-21,17
65929,239,5,985,4,-18,17
65930,240,9,989,4,-16,17
65931,238,7,994,4,-18,18
65932,243,7,989,3,-23,18
65933,239,8,991,2,-29,20
65934,241,1,981,1,-31,19
65935,241,5,981,6,-16,19
65936,243,6,986,11,4,17
65937,237,6,999,11,3,16
65938,236,8,995,5,-16,18
65939,239,3,991,-1,-38,20
65940,244,2,987,-1,-44,20
65941,246,5,980,2,-32,18
65942,246,4,992,7,-10,18
65943,245,8,991,9,-4,16
65944,238,3,1001,6,-15,18
65945,244,5,992,2,-31,18
65946,240,5,992,-1,-39,20
65947,242,9,983,0,-40,20
65948,247,4,985,1,-33,20
65949,244,9,988,4,-21,18
65950,243,9,991,8,-10,18
65951,243,6,989,7,-10,17
65952,244,11,991,5,-16,18
65953,243,8,993,3,-25,18
65954,245,4,991,0,-32,19
65955,239,10,987,1,-32,20
65956,246,7,983,4,-20,18
65957,242,5,988,8,-9,16
65958,243,5,994,9,-7,16
65959,244,5,995,7,-15,17
65960,244,11,997,5,-21,18
65961,247,5,987,1,-31,19
65962,241,7,986,-2,-42,20
65963,245,8,986,0,-35,18
65964,249,2,988,4,-25,18
65965,238,5,988,9,-8,18
65966,244,6,993,11,-1,18
65967,242,6,990,7,-14,18
65968,235,2,985,4,-21,19
65969,241,1,990,6,-14,19
65970,241,1,993,5,-17,18
65971,241,6,988,4,-18,17
65972,245,7,993,5,-17,17
65973,242,8,998,3,-23,19
65974,245,4,992,-2,-46,21
65975,244,5,989,-6,-56,21
65976,248,-2,974,-2,-41,15
65977,249,5,987,7,-13,13
65978,248,6,998,6,-13,17
65979,247,11,991,1,-29,18
65980,246,9,986,1,-33,18
65981,248,6,978,4,-25,18
65982,243,11,979,10,1,16
65983,242,13,992,16,18,15
65984,240,8,992,13,10,15
65985,236,9,1000,7,-10,16
65986,246,5,993,0,-33,18
65987,245,7,989,-2,-48,20
65988,247,4,976,-2,-46,20
65989,247,9,976,4,-21,18
65990,248,0,978,13,9,15
65991,243,5,990,14,16,13
65992,240,7,998,11,8,1
65993,246,16,1002,4,-13,3
65994,242,7,993,0,-28,10
65995,237,16,967,3,-14,-1
65996,241,20,963,16,53,-53
65997,244,30,1000,28,103,-69
65998,253,43,1016,7,81,-116
65999,264,19,977,-20,27,-172
66000,258,27,944,-32,-16,-167
66001,256,19,983,-40,-28,-171
66002,244,-18,980,-26,-30,-161
66003,235,-142,1029,21,-53,82
66004,181,-8,1035,-12,-149,109
66005,242,2,971,-52,-212,37
66006,248,-10,921,-35,-135,7
66007,250,2,938,21,43,-7
66008,236,8,998,58,173,-22
66009,236,13,1040,51,157,-23
66010,230,19,1048,11,17,-6
66011,246,18,1001,-30,-131,19
66012,247,7,963,-37,-161,27
66013,253,-4,938,-11,-70,21
66014,240,3,960,28,59,8
66015,224,2,1008,42,128,-16
66016,230,12,1024,28,98,-44
66017,248,19,1010,4,19,-45
66018,267,22,996,-7,-37,-11
66019,243,14,992,-7,-58,19
66020,243,15,990,-3,-58,30
66021,239,8,984,1,-44,30
66022,242,5,978,6,-16,18
66023,240,4,985,12,9,15
66024,223,4,995,11,16,-2
66025,234,7,987,4,14,-29
66026,255,9,984,2,7,-28
66027,252,12,990,7,4,-2
66028,237,12,995,9,0,13
66029,239,10,1001,7,-14,17
66030,240,4,993,0,-35,20
66031,241,7,990,-3,-47,18
66032,237,4,980,1,-35,17
66033,235,8,990,7,-12,15
66034,221,-2,987,9,6,2
66035,240,6,988,10,18,-18
66036,246,15,994,9,20,-27
66037,243,15,999,7,13,-12
66038,236,11,996,4,-6,1
66039,243,12,993,0,-23,6
66040,238,10,992,-1,-38,14
66041,231,8,986,-2,-45,20
66042,240,8,978,0,-38,18
66043,238,5,985,2,-21,18
66044,225,3,1000,3,-10,7
66045,238,5,997,0,-14,-13
66046,247,18,988,-6,-24,-16
66047,244,9,987,-6,-31,-4
66048,233,3,986,-4,-32,-3
66049,230,7,983,-2,-26,-18
66050,241,15,990,0,-14,-36
66051,243,12,991,4,-7,-47
66052,271,23,989,0,-5,-39
66053,238,7,992,2,-16,0
66054,241,20,986,0,-15,-9
66055,331,133,1032,-62,-61,-212
66056,357,122,1026,-175,-159,-602
66057,402,83,1034,-261,-237,-835
66058,330,128,1072,-294,-277,-952
66059,330,104,1110,-274,-285,-1066
66060,275,102,1006,-277,-307,-1040
66061,215,151,810,-401,-335,-1036
66062,217,10,790,-515,-32,-865
66063,128,109,987,-222,-334,-814
66064,244,27,974,-115,-219,-737
66065,193,-19,939,-105,-134,-620
66066,128,123,1266,-289,329,-427
66067,175,53,916,-100,-86,-317
66068,210,-17,987,-478,329,-77
66069,202,-5,933,-180,131,15
66070,244,-2,952,249,-409,-21
66071,217,30,910,-95,207,196
66072,250,-101,891,39,110,177
66073,270,-55,1439,242,-144,173
66074,221,-56,905,31,-74,158
66075,218,-79,927,130,-92,202
66076,248,-97,953,114,53,272
66077,211,-63,955,89,140,234
66078,226,-66,943,80,179,65
66079,223,-47,919,71,262,-30
66080,254,-45,959,71,291,-40
66081,344,-259,1074,100,225,-5
66082,188,13,1015,45,81,8
66083,246,18,1010,1,0,-25
66084,264,23,990,-11,-42,-17
66085,249,7,994,-17,-73,18
66086,233,2,981,-15,-81,28
66087,250,5,974,-6,-55,20
66088,247,10,982,4,-22,16
66089,243,3,986,11,4,14
66090,239,4,999,10,5,13
66091,243,10,1014,0,-32,19
66092,241,9,991,-15,-79,25
66093,252,7,973,-12,-72,24
66094,251,-2,985,3,-36,37
66095,247,8,997,6,-28,41
66096,244,1,996,1,-49,53
66097,248,22,996,-9,-73,42
66098,243,11,992,-17,-88,32
66099,249,13,976,-16,-90,33
66100,253,1,971,-6,-57,27
66101,249,6,985,9,-9,19
66102,250,15,992,15,12,16
66103,250,8,1006,11,-2,16
66104,243,6,1006,-3,-45,21
66105,247,7,984,-17,-81,24
66106,245,9,977,-19,-87,24
66107,254,2,977,-12,-69,25
66108,249,5,993,-3,-47,26
66109,244,5,976,0,-34,24
66110,248,2,984,7,-10,18
66111,247,11,989,18,11,16
66112,243,4,1005,16,9,18
66113,247,14,1011,2,-25,20
66114,248,13,991,-11,-67,23
66115,255,6,961,-10,-69,27
66116,256,0,960,4,-29,24
66117,252,0,985,18,14,18
66118,245,8,1003,19,17,18
66119,250,4,1011,6,-24,30
66120,247,5,997,0,-70,67
66121,247,0,977,10,-86,124
66122,236,-5,973,31,-72,178
66123,237,2,1021,42,-65,198
66124,231,-9,999,44,-61,208
66125,236,-12,983,37,-56,210
66126,248,-48,974,56,-13,228
66127,215,4,981,79,39,310
66128,211,3,945,111,107,390
66129,235,16,941,128,120,335
66130,293,37,978,55,72,71
66131,265,22,984,56,64,95
66132,242,-2,1009,73,77,175
66133,237,16,1002,71,70,168
66134,248,-4,990,50,51,130
66135,256,9,1010,46,33,114
66136,252,10,1019,44,18,112
66137,246,-2,976,35,3,100
66138,256,23,996,19,-14,50
66139,254,30,979,4,-14,-1
66140,255,14,976,6,12,-28
66141,245,13,979,17,38,-26
66142,243,14,994,20,42,-16
66143,255,11,1005,14,14,-1
66144,239,13,999,1,-24,6
66145,241,8,983,-4,-40,7
66146,255,11,991,0,-25,0
66147,239,10,998,3,-21,14
66148,243,7,983,0,-33,18
66149,239,9,982,0,-23,12
66150,234,0,981,5,0,-5
66151,238,7,983,11,25,-32
66152,247,20,992,14,39,-42
66153,247,17,998,12,30,-32
66154,244,12,997,7,10,-17
66155,243,11,995,4,-3,-12
66156,238,7,992,2,-8,-13
66157,245,14,994,0,-15,-4
66158,241,17,994,-1,-27,6
66159,239,7,996,-4,-39,15
66160,243,7,991,-6,-46,16
66161,248,7,987,-6,-42,14
66162,241,7,986,-4,-36,14
66163,242,13,994,-1,-28,14
66164,241,10,990,0,-29,16
66165,240,10,993,0,-31,18
66166,246,6,991,0,-32,18
66167,249,12,990,-2,-35,16
66168,251,6,996,-2,-35,18
66169,246,11,991,0,-32,21
66170,239,8,987,2,-30,21
66171,245,10,994,0,-35,21
66172,251,6,994,-4,-42,23
66173,248,10,986,-7,-47,25
66174,249,3,991,-4,-45,30
66175,248,6,986,-4,-30,32
66176,235,5,985,-4,-7,28
66177,237,0,986,-2,5,14
66178,235,4,987,7,2,-2
66179,243,8,978,26,-11,-8
66180,244,8,988,11,-1,-1
66181,242,8,997,2,-18,16
66182,246,13,991,-2,-43,28
66183,243,10,986,-3,-51,32
66184,244,7,985,0,-43,34
66185,240,10,986,4,-28,30
66186,241,4,992,6,-17,18
66187,243,7,990,7,-14,11
66188,253,9,988,7,-9,11
66189,247,7,996,9,-8,14
66190,245,9,993,4,-20,16
66191,243,7,988,0,-32,19
66192,248,7,987,0,-30,18
66193,247,4,986,4,-22,19
66194,242,6,993,6,-17,17
66195,245,8,988,4,-18,16
66196,241,3,985,4,-21,12
66197,246,5,982,2,-18,6
66198,239,6,988,4,-7,0
66199,242,6,994,9,6,-2
66200,247,11,996,11,4,0
66201,246,10,995,6,-8,4
66202,246,5,993,2,-20,10
66203,244,5,992,2,-28,16
66204,243,4,985,1,-30,17
66205,244,9,985,1,-30,18
66206,243,10,991,1,-27,19
66207,242,6,993,2,-26,16
66208,241,12,988,3,-23,15
66209,235,8,992,2,-20,11
66210,244,12,981,2,-19,8
66211,241,15,987,2,-18,5
66212,235,12,990,2,-11,0
66213,239,15,986,4,-5,-4
66214,239,4,990,4,-1,-10
66215,246,10,993,4,-2,-12
66216,247,13,990,3,-10,-8
66217,243,14,990,0,-19,-4
66218,236,12,987,-1,-23,-4
66219,249,5,988,-2,-22,-9
66220,243,9,984,-1,-19,-13
66221,243,3,987,1,-11,-17
66222,242,8,991,1,-4,-18
66223,242,11,989,1,-4,-20
66224,242,14,992,0,-8,-23
66225,241,15,992,0,-11,-25
66226,248,11,993,-3,-14,-21
66227,237,18,985,-4,-23,-18
66228,248,11,990,-8,-31,-18
66229,240,10,992,-9,-33,-20
66230,241,6,990,-10,-29,-23
66231,242,7,982,-9,-25,-25
66232,243,11,995,-3,-19,-25
66233,234,4,992,0,-12,-26
66234,237,2,992,2,-9,-34
66235,242,8,995,5,-11,-44
66236,247,8,993,0,-12,-44
66237,250,13,994,-3,-16,-33
66238,256,13,995,-4,-21,-20
66239,255,12,989,-2,-29,-2
66240,244,10,988,-3,-37,12
66241,240,6,987,-3,-43,17
66242,239,9,985,-4,-43,18
66243,243,12,985,-1,-36,18
66244,241,9,990,0,-30,16
66245,243,8,989,1,-23,11
66246,243,9,989,2,-17,4
66247,241,8,984,2,-15,0
66248,247,8,985,2,-16,-2
66249,246,5,990,2,-18,-3
66250,247,8,989,0,-21,0
66251,244,14,992,0,-26,5
66252,244,8,990,0,-31,14
66253,247,10,994,-1,-36,18
66254,245,17,992,-1,-42,19
66255,245,9,987,-2,-42,20
66256,246,14,987,-1,-38,19
66257,243,8,984,1,-31,20
66258,247,6,987,3,-23,18
66259,243,5,990,6,-16,18
66260,244,6,989,7,-16,18
66261,243,9,989,4,-21,18
66262,245,13,991,1,-28,19
66263,249,5,987,0,-31,21
66264,251,9,982,2,-28,21
66265,245,3,995,4,-21,22
66266,241,5,990,7,-15,24
66267,250,5,989,8,-16,25
66268,241,-1,991,7,-18,32
66269,239,6,999,9,-23,39
66270,254,16,989,2,-25,23
66271,249,13,989,2,-23,19
66272,243,8,994,6,-17,18
66273,249,8,992,5,-16,16
66274,248,9,987,3,-20,16
66275,247,10,989,2,-28,18
66276,252,11,988,1,-31,19
66277,247,7,987,2,-28,18
66278,247,11,987,2,-23,17
66279,246,7,989,3,-20,16
66280,245,12,988,4,-19,15
66281,244,8,985,2,-18,14
66282,244,8,985,2,-18,11
66283,248,8,987,3,-14,9
66284,249,11,991,5,-8,6
66285,245,5,989,7,-7,7
66286,243,8,996,5,-10,6
66287,247,9,987,5,-12,4
66288,247,5,983,6,-7,2
66289,240,10,986,9,-3,4
66290,240,3,990,8,-2,5
66291,248,10,1000,5,-8,9
66292,238,7,993,4,-19,13
66293,245,9,991,2,-26,17
66294,242,6,992,2,-23,18
66295,242,7,988,4,-18,16
66296,241,9,988,5,-15,14
66297,243,10,997,5,-14,11
66298,249,14,989,4,-16,11
66299,242,8,993,5,-16,14
66300,239,13,985,4,-18,16
66301,244,12,993,4,-20,17
66302,244,10,985,2,-23,17
66303,250,13,987,2,-23,19
66304,246,9,987,3,-23,19
66305,241,7,983,3,-23,19
66306,247,9,984,5,-16,16
66307,250,9,1006,7,-14,17
66308,242,9,999,-3,-44,23
66309,252,8,980,-10,-62,27
66310,254,14,971,-5,-48,34
66311,239,0,977,7,-15,35
66312,247,7,994,16,6,20
66313,247,5,1009,9,-4,16
66314,243,8,997,-2,-34,20
66315,247,14,981,-8,-56,26
66316,255,4,981,-3,-47,31
66317,244,6,984,7,-25,34
66318,239,10,993,10,-12,28
66319,244,12,991,5,-16,20
66320,249,5,997,0,-29,18
66321,245,7,978,0,-32,19
66322,247,4,984,4,-20,18
66323,249,5,993,8,-9,18
66324,245,10,999,8,-10,17
66325,242,13,992,5,-18,18
66326,251,10,983,2,-26,18
66327,248,14,981,2,-29,18
66328,246,7,983,4,-23,20
66329,247,6,991,5,-18,18
66330,247,14,988,6,-15,18
66331,243,9,991,6,-17,18
66332,246,7,990,4,-19,16
66333,245,6,985,4,-21,16
66334,243,9,992,4,-21,19
66335,248,12,990,4,-18,19
66336,245,10,988,4,-16,18
66337,245,11,996,7,-16,18
66338,246,5,987,6,-14,20
66339,243,6,993,6,-16,18
66340,253,11,994,4,-21,18
66341,245,7,990,4,-20,18
66342,246,5,989,7,-14,18
66343,248,9,986,9,-11,18
66344,243,10,993,7,-14,18
66345,244,8,989,4,-20,18
66346,249,12,989,3,-25,18
66347,248,1,989,2,-25,19
66348,247,8,986,4,-18,18
66349,246,7,989,8,-12,18
66350,245,9,985,5,-14,18
66351,247,9,997,4,-20,19
66352,244,12,997,2,-24,20
66353,247,7,989,3,-25,21
66354,246,6,985,4,-22,24
66355,242,11,985,6,-22,28
66356,247,5,994,5,-27,26
66357,256,13,986,3,-29,27
66358,244,9,989,4,-30,32
66359,252,8,987,7,-35,39
66360,248,8,987,6,-42,42
66361,245,9,992,0,-45,38
66362,246,7,987,-1,-45,33
66363,245,4,981,2,-38,36
66364,248,2,987,6,-32,37
66365,242,5,983,7,-24,34
66366,249,10,984,5,-23,27
66367,249,11,984,4,-25,25
66368,246,7,988,4,-25,27
66369,243,9,990,3,-27,25
66370,250,5,992,3,-23,21
66371,249,13,990,3,-21,19
66372,244,3,991,4,-20,20
66373,251,13,988,4,-23,21
66374,247,10,982,2,-26,18
66375,244,6,984,2,-26,21
66376,251,11,988,5,-21,23
66377,242,6,977,9,-12,21
66378,245,4,989,10,-9,21
66379,244,7,993,7,-15,19
66380,242,10,988,5,-20,21
66381,249,3,994,4,-24,25
66382,246,2,990,3,-24,31
66383,241,6,989,5,-21,38
66384,243,8,982,6,-16,35
66385,252,6,984,8,-11,28
66386,247,11,991,9,-4,22
66387,244,9,990,11,-2,20
66388,244,7,985,9,-10,21
66389,248,10,988,7,-16,22
66390,245,10,986,6,-19,24
66391,247,13,988,7,-19,27
66392,244,10,993,10,-18,32
66393,241,0,986,13,-16,49
66394,230,-4,982,18,-9,86
66395,248,0,978,26,-19,93
66396,257,14,973,14,-22,57
66397,257,19,975,12,-13,25
66398,252,7,983,21,6,23
66399,240,2,991,31,14,37
66400,234,0,1005,31,5,36
66401,244,-11,977,31,-9,46
66402,240,-20,988,39,-16,98
66403,224,-49,998,49,-8,192
66404,207,-8,976,66,-4,281
66405,213,1,960,76,-21,326
66406,254,10,1014,94,-11,303
66407,268,-76,942,84,19,362
66408,223,-27,964,114,91,411
66409,215,-40,962,77,116,332
66410,251,-28,1069,98,85,291
66411,254,0,1027,111,84,307
66412,253,30,926,99,100,207
66413,263,13,977,100,103,168
66414,266,41,1062,112,108,189
66415,272,9,1081,91,58,182
66416,226,22,930,44,25,158
66417,241,77,989,24,-14,141
66418,261,42,992,25,-55,156
66419,241,-34,996,38,-81,193
66420,223,-16,1005,34,-79,223
66421,209,10,923,9,-74,191
66422,229,34,955,27,-77,172
66423,255,-31,929,3,-40,58
66424,256,-37,983,3,-14,83
66425,221,-8,998,28,32,158
66426,215,59,1072,64,7,118
66427,242,70,1016,53,-1,84
66428,263,28,982,35,14,90
66429,263,17,1017,40,16,131
66430,237,37,1018,35,-5,172
66431,238,69,1010,23,-44,148
66432,260,48,1014,-2,-92,70
66433,260,0,981,4,-90,58
66434,239,-13,993,16,-61,112
66435,236,24,1067,33,-67,119
66436,246,1,987,2,-66,37
66437,244,30,970,-12,-54,-5
66438,258,-10,983,-4,-31,21
66439,237,24,1010,8,-22,60
66440,236,0,1014,7,-30,46
66441,245,-14,956,-2,-38,32
66442,246,-22,960,-4,-42,58
66443,228,0,950,4,-43,106
66444,244,37,1043,22,-46,128
66445,237,6,953,14,-35,102
66446,257,28,991,14,-29,78
66447,249,31,994,18,-18,60
66448,244,21,966,23,-14,43
66449,246,17,996,13,-6,12
66450,239,22,991,9,-2,-1
66451,243,34,989,4,-4,-12
66452,246,20,983,4,-11,-1
66453,249,22,993,4,-18,9
66454,243,21,995,4,-26,15
66455,242,18,991,1,-32,18
66456,243,10,989,1,-35,18
66457,243,7,976,0,-32,19
66458,247,9,989,3,-26,18
66459,243,7,996,4,-19,17
66460,244,4,986,6,-14,17
66461,245,15,987,5,-16,16
66462,244,9,991,3,-23,18
66463,243,7,989,3,-27,18
66464,244,3,990,2,-26,18
66465,248,10,990,4,-21,17
66466,241,2,994,3,-16,14
66467,243,5,995,4,-15,14
66468,246,10,991,3,-18,13
66469,245,8,988,3,-21,12
66470,239,7,990,4,-20,13
66471,234,7,989,3,-16,11
66472,243,10,992,4,-14,10
66473,241,9,987,7,-14,9
66474,246,9,990,7,-13,9
66475,243,14,996,7,-13,10
66476,250,14,993,5,-12,11
66477,243,12,999,6,-16,14
66478,245,12,983,4,-20,14
66479,245,10,990,2,-25,17
66480,247,5,984,1,-28,18
66481,247,4,989,2,-25,19
66482,240,9,990,4,-21,18
66483,248,8,990,5,-18,17
66484,246,9,987,6,-17,17
66485,250,2,987,5,-19,18
66486,245,9,982,4,-19,18
66487,241,9,992,4,-21,17
66488,239,8,991,6,-17,18
66489,240,4,989,7,-13,18
66490,242,10,993,7,-15,18
66491,240,9,996,5,-21,19
66492,244,5,993,2,-26,18
66493,242,10,987,2,-28,19
66494,243,5,990,4,-24,19
66495,239,10,997,4,-21,18
66496,239,7,988,4,-20,19
66497,241,9,994,4,-21,20
66498,248,5,984,3,-23,20
66499,244,4,990,2,-25,19
66500,240,7,988,5,-20,17
66501,247,9,984,7,-10,18
66502,243,12,992,9,-4,17
66503,242,9,1000,8,-9,17
66504,247,8,994,4,-22,18
66505,243,3,989,2,-32,20
66506,250,8,985,0,-32,20
66507,242,10,987,2,-25,19
66508,245,7,993,5,-15,18
66509,243,8,993,7,-11,18
66510,248,10,990,5,-14,18
66511,245,11,990,5,-18,18
66512,242,14,992,3,-23,18
66513,245,7,989,2,-27,18
66514,243,7,991,1,-26,18
66515,241,11,981,2,-24,18
66516,245,6,995,4,-18,18
66517,245,9,992,6,-17,18
66518,234,11,1005,3,-25,17
66519,237,8,990,0,-40,19
66520,250,9,978,-1,-41,19
66521,248,5,982,4,-21,18
66522,244,9,990,9,-3,16
66523,242,12,996,10,-2,18
66524,241,12,984,9,-7,18
66525,241,11,996,6,-18,18
66526,247,5,988,0,-33,18
66527,245,4,986,0,-38,20
66528,245,7,981,2,-24,18
66529,247,8,993,9,-7,18
66530,244,7,991,9,-4,17
66531,244,11,992,3,-25,19
66532,245,10,987,-3,-45,21
66533,245,10,977,-1,-37,20
66534,242,8,985,7,-7,17
66535,243,14,993,14,11,16
66536,244,8,1005,12,2,16
66537,242,13,993,4,-22,18
66538,241,9,988,-2,-38,20
66539,244,7,982,0,-35,20
66540,244,11,979,3,-23,18
66541,247,11,989,6,-18,18
66542,247,6,985,5,-15,18
66543,246,8,993,6,-16,18
66544,245,9,992,4,-23,20
66545,248,6,994,2,-28,19
66546,247,3,986,1,-28,18
66547,245,7,984,4,-22,18
66548,243,14,983,7,-11,16
66549,246,11,989,9,-4,16
66550,245,9,996,7,-10,16
66551,247,8,994,2,-25,18
66552,246,6,987,0,-35,19
66553,247,6,985,2,-30,19
66554,243,6,982,7,-15,18
66555,241,11,987,9,-4,17
66556,244,9,991,8,-9,17
66557,250,8,994,3,-23,19
66558,243,8,991,0,-32,20
66559,248,9,989,0,-32,20
66560,246,9,987,4,-22,18
66561,243,10,985,7,-9,18
66562,239,6,989,8,-4,18
66563,244,10,993,8,-8,18
66564,243,16,996,6,-16,18
66565,241,13,995,0,-30,18
66566,244,8,987,-2,-36,18
66567,247,10,985,2,-29,19
66568,245,8,988,8,-11,18
66569,243,14,989,11,0,17
66570,244,12,992,10,-4,16
66571,241,9,995,7,-13,18
66572,242,7,991,2,-23,19
66573,249,8,990,1,-29,19
66574,253,9,986,3,-25,18
66575,243,3,989,6,-14,17
66576,243,7,988,9,-9,16
66577,244,8,987,8,-9,18
66578,238,10,990,4,-18,19
66579,239,11,989,2,-27,19
66580,243,6,986,0,-28,20
66581,241,8,985,3,-19,18
66582,245,4,986,7,-11,18
66583,247,11,987,7,-11,18
66584,241,9,990,5,-15,17
66585,243,10,996,3,-21,17
66586,242,11,982,2,-24,19
66587,246,7,986,2,-23,19
66588,248,6,989,4,-18,17
66589,240,8,988,6,-15,18
66590,248,8,989,5,-14,18
66591,245,2,994,6,-16,18
66592,245,14,992,4,-19,19
66593,243,9,987,4,-21,18
66594,249,8,989,4,-20,18
66595,251,12,989,5,-18,18
66596,236,9,989,6,-16,16
66597,241,5,993,6,-15,17
66598,243,6,992,4,-16,16
66599,248,11,988,4,-18,16
66600,245,6,992,4,-23,18
66601,248,3,986,2,-23,19
66602,239,5,986,4,-21,18
66603,247,12,992,6,-16,16
66604,247,8,990,7,-12,17
66605,244,9,986,6,-14,18
66606,245,7,990,3,-21,18
66607,247,8,984,3,-25,18
66608,245,10,984,4,-24,20
66609,240,9,985,4,-19,18
66610,246,9,986,4,-16,17
66611,244,8,988,5,-17,18
66612,247,5,989,6,-19,18
66613,244,12,984,4,-17,18
66614,243,8,990,4,-16,18
66615,241,12,992,5,-18,18
66616,246,4,990,4,-20,18
66617,244,6,987,2,-25,18
66618,240,7,986,2,-27,18
66619,247,6,981,4,-18,18
66620,249,10,982,8,-10,16
66621,240,10,990,8,-9,16
66622,247,10,994,4,-18,18
66623,243,9,993,0,-31,20
66624,245,4,984,0,-35,19
66625,245,7,981,0,-29,19
66626,248,7,986,4,-15,17
66627,245,8,986,9,-6,16
66628,243,6,988,9,-9,17
66629,243,10,999,4,-24,18
66630,242,9,984,0,-35,19
66631,252,5,976,3,-25,18
66632,241,13,988,11,-2,17
66633,246,9,1000,14,7,16
66634,243,9,996,7,-11,18
66635,245,11,991,0,-37,20
66636,247,10,990,-2,-46,21
66637,247,9,980,0,-33,19
66638,251,6,987,5,-14,18
66639,243,11,987,9,-7,17
66640,246,10,989,9,-5,17
66641,244,11,992,7,-9,18
66642,246,9,991,3,-21,19
66643,246,10,990,2,-31,19
66644,245,9,986,2,-27,18
66645,243,5,991,7,-15,18
66646,241,7,990,9,-9,17
66647,241,9,990,7,-12,17
66648,242,4,990,6,-16,18
66649,243,7,988,4,-21,18
66650,243,12,988,5,-21,18
66651,246,9,992,5,-17,17
66652,241,9,991,6,-16,16
66653,247,10,995,7,-18,17
66654,240,8,991,7,-13,16
66655,239,8,995,6,-11,16
66656,249,4,992,4,-21,18
66657,246,9,988,2,-32,19
66658,243,7,991,1,-30,18
66659,236,7,988,4,-23,18
66660,241,7,991,4,-17,17
66661,243,7,988,8,-12,16
66662,243,9,995,9,-8,16
66663,249,9,991,8,-7,16
66664,246,12,990,5,-12,16
66665,245,12,992,3,-23,15
66666,246,5,987,0,-28,16
66667,250,5,987,0,-31,18
66668,245,2,993,2,-23,16
66669,246,9,984,6,-13,15
66670,242,8,995,8,-3,14
66671,243,9,995,9,0,11
66672,244,14,996,6,-5,6
66673,244,14,987,2,-16,7
66674,238,11,986,1,-21,9
66675,243,13,983,2,-18,7
66676,246,13,988,4,-11,9
66677,248,17,989,7,-6,12
66678,245,13,988,10,-2,15
66679,242,12,987,11,-3,17
66680,242,12,992,9,-9,16
66681,243,12,997,4,-24,17
66682,243,8,991,-2,-39,18
66683,245,10,987,-4,-46,21
66684,244,6,982,0,-38,20
66685,241,10,982,5,-18,18
66686,242,7,989,11,0,16
66687,242,8,996,11,0,16
66688,234,9,999,5,-17,18
66689,241,7,987,1,-32,18
66690,244,2,989,0,-33,18
66691,241,10,985,3,-22,18
66692,240,5,984,7,-10,18
66693,245,8,990,9,-4,18
66694,243,5,988,7,-9,17
66695,240,8,994,4,-18,17
66696,238,8,993,1,-31,18
66697,242,9,982,0,-34,19
66698,248,4,982,4,-21,18
66699,244,10,985,11,-1,16
66700,246,17,1000,14,7,15
66701,241,20,1002,9,-7,17
66702,241,13,999,0,-32,16
66703,242,5,989,-2,-44,19
66704,249,8,980,0,-35,19
66705,246,12,987,6,-16,17
66706,240,11,987,12,4,16
66707,247,12,998,11,1,14
66708,241,11,994,5,-14,14
66709,244,6,987,2,-27,14
66710,241,9,990,1,-29,14
66711,245,7,984,2,-26,14
66712,247,10,981,5,-15,14
66713,245,12,989,8,-5,14
66714,239,6,990,8,-5,13
66715,241,7,990,7,-10,13
66716,245,6,995,5,-11,12
66717,238,6,990,5,-12,14
66718,242,10,988,5,-15,15
66719,246,9,992,4,-16,15
66720,246,16,985,4,-16,14
66721,240,11,990,4,-17,15
66722,244,12,985,4,-16,16
66723,238,10,997,2,-16,15
66724,246,10,990,3,-18,15
66725,240,7,988,4,-21,16
66726,249,5,986,4,-19,17
66727,243,12,987,4,-18,16
66728,247,6,994,6,-16,15
66729,236,8,989,6,-14,14
66730,242,5,991,5,-13,14
66731,244,9,988,5,-12,15
66732,246,7,994,4,-15,17
66733,241,9,985,5,-17,18
66734,244,7,993,5,-15,17
66735,245,12,996,6,-14,17
66736,246,7,993,5,-18,18
66737,242,14,989,2,-26,18
66738,240,7,994,2,-25,18
66739,244,6,993,3,-22,18
66740,243,9,989,4,-16,17
66741,245,5,989,6,-14,18
66742,240,12,994,6,-18,18
66743,232,8,997,3,-22,18
66744,241,7,994,4,-23,18
66745,245,14,989,4,-21,16
66746,240,5,990,4,-19,17
66747,244,5,992,4,-19,18
66748,242,6,992,4,-23,18
66749,242,2,994,3,-23,19
66750,238,4,990,3,-19,17
66751,241,11,990,5,-15,18
66752,245,12,987,6,-13,18
66753,243,10,987,6,-13,18
66754,244,7,981,7,-9,18
66755,237,10,1000,9,-3,18
66756,242,12,1009,2,-26,18
66757,240,7,988,-7,-57,20
66758,244,0,964,-2,-42,20
66759,242,6,978,15,9,16
66760,244,10,997,25,45,13
66761,238,10,1016,16,16,15
66762,238,12,1007,-3,-47,21
66763,242,13,983,-16,-86,23
66764,249,9,967,-8,-61,20
66765,247,3,970,10,-1,15
66766,243,11,993,23,40,13
66767,240,9,1009,17,21,15
66768,239,11,1004,2,-30,18
66769,246,16,989,-7,-58,21
66770,249,11,974,-3,-40,19
66771,242,8,986,7,-14,18
66772,244,8,993,8,-9,18
66773,244,11,995,4,-20,19
66774,245,15,986,1,-28,19
66775,243,12,988,3,-20,18
66776,243,8,996,7,-11,18
66777,242,12,993,6,-19,20
66778,244,18,990,1,-32,19
66779,246,13,986,1,-30,20
66780,239,4,983,7,-13,18
66781,241,10,997,10,-3,18
66782,243,9,996,8,-9,16
66783,243,8,990,4,-23,18
66784,243,9,987,0,-30,18
66785,242,5,990,2,-30,18
66786,241,1,991,2,-28,18
66787,241,11,981,3,-23,18
66788,252,8,989,7,-13,17
66789,243,11,997,8,-7,17
66790,241,12,996,7,-12,17
66791,241,9,1004,2,-24,18
66792,241,5,983,0,-31,18
66793,245,13,984,3,-23,18
66794,243,6,991,4,-21,18
66795,247,13,994,4,-21,18
66796,241,15,996,4,-22,18
66797,239,11,992,1,-30,18
66798,244,6,986,1,-32,18
66799,252,6,971,4,-25,18
66800,249,5,983,14,5,16
66801,242,7,987,22,32,14
66802,234,8,1003,21,31,14
66803,241,11,1019,9,-6,18
66804,232,13,1002,-8,-65,23
66805,244,0,982,-18,-94,24
66806,244,8,961,-6,-57,21
66807,249,9,976,14,4,16
66808,241,4,996,25,43,14
66809,240,11,1012,22,32,14
66810,236,13,1005,6,-11,17
66811,247,8,1002,-7,-54,21
66812,242,4,981,-11,-69,22
66813,250,4,977,-6,-55,21
66814,246,6,979,4,-20,17
66815,245,8,987,15,11,16
66816,237,12,992,16,15,14
66817,246,14,992,9,-6,17
66818,243,12,996,-1,-36,18
66819,243,13,985,-6,-53,19
66820,250,16,976,-2,-44,20
66821,245,8,977,7,-16,18
66822,246,10,988,14,9,16
66823,239,8,990,14,11,15
66824,246,11,1007,9,-10,17
66825,240,12,992,0,-35,19
66826,244,10,985,-2,-47,21
66827,241,6,982,0,-37,20
66828,245,2,984,7,-14,18
66829,242,4,992,11,4,16
66830,243,10,995,12,2,16
66831,243,7,997,8,-11,17
66832,244,6,993,1,-28,18
66833,243,5,984,0,-37,19
66834,244,8,988,2,-27,19
66835,244,9,987,4,-16,18
66836,249,9,989,6,-11,17
66837,238,10,991,6,-14,18
66838,241,8,994,4,-18,18
66839,246,6,988,3,-25,19
66840,237,13,988,2,-29,18
66841,249,8,982,3,-27,18
66842,242,11,991,4,-19,18
66843,244,12,995,5,-12,18
66844,245,11,992,6,-14,16
66845,242,11,997,4,-21,18
66846,246,10,993,2,-26,19
66847,245,15,983,2,-28,19
66848,247,7,988,4,-22,18
66849,239,12,985,6,-15,18
66850,244,11,986,7,-12,18
66851,239,12,998,6,-17,18
66852,246,9,990,4,-23,18
66853,243,6,997,3,-28,18
66854,244,10,988,3,-28,18
66855,243,10,985,4,-21,18
66856,244,11,984,7,-14,17
66857,242,5,994,8,-11,17
66858,246,9,998,6,-15,18
66859,240,10,995,4,-21,18
66860,245,13,988,3,-24,19
66861,239,5,997,3,-25,18
66862,240,7,985,4,-20,18
66863,240,10,989,7,-11,18
66864,244,0,981,10,-2,16
66865,238,7,984,15,14,16
66866,242,14,1001,13,5,16
66867,240,12,999,3,-25,17
66868,244,11,996,-7,-58,20
66869,251,7,976,-11,-71,23
66870,244,8,961,0,-37,23
66871,248,8,969,16,16,17
66872,245,14,998,24,43,14
66873,238,15,1010,16,16,16
66874,237,10,1001,-1,-39,20
66875,249,10,988,-13,-76,21
66876,245,5,970,-8,-61,21
66877,251,5,972,7,-11,17
66878,241,6,989,18,25,14
66879,242,10,1001,18,21,14
66880,240,8,1009,7,-11,16
66881,243,10,995,-2,-40,19
66882,243,7,974,-1,-42,19
66883,244,12,978,7,-11,17
66884,245,10,999,13,10,15
66885,232,11,1003,6,-9,17
66886,241,8,1002,-8,-55,20
66887,243,10,990,-17,-87,24
66888,253,3,969,-11,-74,25
66889,244,1,967,2,-30,24
66890,241,11,975,21,30,16
66891,237,12,995,32,70,12
66892,242,12,1019,28,49,14
66893,232,13,1021,4,-23,19
66894,241,12,1001,-21,-101,24
66895,245,5,976,-30,-129,26
66896,250,2,956,-16,-86,24
66897,248,7,966,9,-3,18
66898,247,11,988,29,58,11
66899,241,10,1005,27,52,12
66900,234,18,1012,10,-3,17
66901,245,10,996,-10,-67,23
66902,245,7,980,-19,-93,23
66903,246,9,962,-9,-65,23
66904,252,8,971,11,-4,17
66905,244,12,997,23,35,15
66906,244,8,999,19,27,15
66907,241,7,1008,7,-12,18
66908,245,14,986,-7,-55,21
66909,247,14,981,-11,-69,23
66910,245,6,979,-5,-51,21
66911,245,9,975,3,-21,18
66912,244,8,989,10,0,17
66913,243,9,1002,10,0,16
66914,241,7,1001,7,-11,16
66915,243,10,995,2,-27,17
66916,244,12,991,-2,-39,18
66917,244,5,980,-2,-42,20
66918,242,6,978,1,-30,18
66919,246,11,985,6,-16,18
66920,243,7,986,9,-6,16
66921,242,12,996,8,-9,18
66922,245,15,995,3,-23,18
66923,243,10,991,0,-35,20
66924,241,8,989,0,-35,19
66925,249,16,990,2,-27,18
66926,246,7,992,3,-20,17
66927,247,7,990,7,-16,17
66928,243,13,990,6,-17,17
66929,247,11,993,2,-23,17
66930,243,7,989,0,-30,18
66931,248,11,983,-1,-35,18
66932,247,10,984,2,-28,18
66933,244,12,988,4,-18,18
66934,244,8,995,7,-14,17
66935,243,14,995,4,-21,18
66936,252,7,983,4,-22,18
66937,246,8,994,5,-14,17
66938,241,5,999,4,-16,18
66939,243,9,998,2,-27,20
66940,249,9,992,-2,-39,21
66941,243,3,988,-9,-53,21
66942,247,6,968,-3,-40,20
66943,247,7,975,14,7,16
66944,243,8,993,25,41,13
66945,240,3,1011,18,21,14
66946,244,9,1016,-3,-40,19
66947,243,2,986,-21,-96,25
66948,254,2,963,-18,-86,23
66949,253,4,966,3,-20,19
66950,243,8,984,22,33,14
66951,246,9,999,23,37,14
66952,241,5,1010,11,0,16
66953,245,10,1006,-4,-48,20
66954,248,8,998,-17,-84,23
66955,251,6,959,-14,-83,23
66956,259,1,952,5,-19,18
66957,248,8,965,38,77,11
66958,237,15,1022,49,113,7
66959,234,15,1040,24,41,13
66960,240,18,1022,-18,-91,23
66961,246,12,979,-48,-172,30
66962,253,7,935,-37,-140,29
66963,253,4,948,0,-35,19
66964,246,7,976,33,65,11
66965,244,9,1006,42,91,9
66966,244,12,1017,26,42,13
66967,243,16,1019,0,-39,20
66968,246,14,999,-23,-100,25
66969,251,5,972,-27,-107,25
66970,251,5,956,-10,-62,21
66971,250,4,975,11,-1,17
66972,244,2,989,23,36,13
66973,239,8,1004,23,34,13
66974,243,11,1007,11,2,15
66975,242,10,997,-2,-38,18
66976,240,8,985,-8,-60,21
66977,246,4,979,-8,-57,22
66978,246,11,981,-2,-40,20
66979,250,7,982,4,-18,18
66980,249,7,986,11,-2,17
66981,247,8,1000,9,-7,17
66982,248,5,993,3,-21,18
66983,246,11,989,2,-27,18
66984,253,16,983,3,-23,19
66985,243,14,993,6,-16,18
66986,244,13,989,4,-16,17
66987,243,9,993,4,-23,18
66988,255,11,989,2,-23,18
66989,246,11,981,4,-18,18
66990,243,11,984,7,-11,18
66991,243,7,995,6,-14,18
66992,239,10,988,2,-28,19
66993,245,1,985,0,-35,19
66994,246,8,983,3,-25,19
66995,251,4,988,7,-13,18
66996,243,8,992,9,-7,17
66997,246,10,1000,7,-14,18
66998,253,3,982,1,-25,19
66999,251,5,982,2,-28,18
67000,249,4,989,6,-16,18
67001,242,9,989,9,-4,17
67002,247,12,989,8,-9,16
67003,245,13,990,2,-27,18
67004,249,5,986,-2,-42,21
67005,251,7,977,0,-36,19
67006,247,9,984,5,-16,17
67007,248,14,995,12,-1,16
67008,247,8,998,10,-2,16
67009,244,9,996,5,-16,18
67010,244,10,989,0,-28,18
67011,245,10,992,0,-31,19
67012,250,10,984,2,-28,18
67013,245,11,984,4,-20,17
67014,239,14,991,5,-15,18
67015,253,5,992,5,-15,18
67016,246,9,982,4,-18,18
67017,255,7,987,4,-22,18
67018,244,9,986,3,-26,18
67019,249,9,994,2,-26,17
67020,250,7,989,4,-21,18
67021,244,1,987,6,-16,18
67022,244,8,992,5,-15,18
67023,249,1,993,4,-18,18
67024,249,6,993,2,-25,19
67025,255,12,992,1,-28,19
67026,247,6,988,2,-26,20
67027,246,6,992,4,-23,20
67028,254,4,985,6,-17,19
67029,247,11,991,7,-11,19
67030,243,9,992,7,-13,23
67031,248,14,985,7,-21,32
67032,248,10,995,9,-30,57
67033,255,10,993,10,-46,86
67034,240,-4,992,14,-63,129
67035,235,-14,993,21,-79,170
67036,247,-45,996,31,-94,225
67037,235,-53,965,11,-107,219
67038,219,-28,914,16,-86,234
67039,212,-14,906,37,-31,277
67040,251,335,1049,65,18,187
67041,344,22,956,25,36,3
67042,258,17,985,32,63,-4
67043,246,12,1003,36,60,10
67044,247,3,1008,19,16,14
67045,245,9,996,2,-27,18
67046,248,6,995,-8,-53,22
67047,252,1,984,-9,-56,22
67048,249,6,977,0,-34,20
67049,251,1,977,9,-4,18
67050,249,9,984,18,16,15
67051,247,3,1001,18,16,14
67052,243,7,1001,9,-5,16
67053,247,9,1006,-2,-37,20
67054,249,2,981,-13,-65,22
67055,249,7,974,-11,-63,21
67056,248,5,973,2,-27,18
67057,248,4,981,18,14,16
67058,246,6,997,22,28,14
67059,246,5,1012,13,2,16
67060,243,8,1004,-2,-35,21
67061,247,3,979,-10,-58,21
67062,252,4,975,-7,-49,21
67063,253,10,976,5,-17,18
67064,251,7,985,19,15,15
67065,248,6,997,21,19,14
67066,238,11,1006,9,-7,16
67067,251,9,999,-4,-43,21
67068,252,11,981,-10,-58,21
67069,249,4,979,-6,-46,21
67070,250,4,980,4,-18,17
67071,251,6,989,13,2,16
67072,243,7,986,15,4,15
67073,250,4,993,7,-11,18
67074,249,6,991,-1,-30,19
67075,246,5,982,-2,-37,21
67076,252,4,984,0,-29,20
67077,253,8,984,7,-14,18
67078,243,12,984,9,-7,16
67079,243,5,990,6,-13,18
67080,247,10,992,4,-21,18
67081,251,8,986,2,-26,18
67082,254,5,981,2,-22,17
67083,255,4,986,4,-18,18
67084,248,4,989,5,-19,18
67085,245,7,987,2,-23,18
67086,249,8,982,3,-22,17
67087,248,4,991,5,-19,17
67088,251,3,988,7,-14,16
67089,244,9,987,6,-15,17
67090,246,5,990,3,-22,18
67091,247,1,985,2,-28,18
67092,250,8,983,3,-25,19
67093,251,5,981,6,-16,18
67094,255,0,996,9,-7,17
67095,246,6,995,7,-10,16
67096,251,5,990,4,-21,18
67097,249,10,993,0,-31,19
67098,245,5,990,0,-34,20
67099,247,4,983,2,-28,18
67100,252,4,990,4,-21,18
67101,252,7,990,5,-19,18
67102,252,7,987,4,-20,18
67103,250,8,982,7,-15,18
67104,245,3,990,9,-9,18
67105,250,9,993,9,-11,19
67106,247,4,990,6,-19,17
67107,246,6,984,2,-28,18
67108,250,7,989,0,-29,20
67109,249,6,992,1,-28,20
67110,246,-2,977,2,-24,18
67111,251,6,985,10,-7,18
67112,251,5,983,16,8,15
67113,250,7,997,13,2,16
67114,246,0,990,5,-16,18
67115,250,11,986,2,-25,18
67116,246,2,992,4,-21,18
67117,249,-2,996,4,-19,18
67118,243,4,987,4,-21,18
67119,246,8,984,4,-22,18
67120,241,8,981,8,-12,17
67121,249,13,992,11,-1,15
67122,246,7,1000,9,-2,15
67123,252,13,995,4,-18,16
67124,246,4,983,-1,-33,18
67125,250,1,984,-2,-36,18
67126,254,2,987,3,-23,17
67127,249,9,982,11,-4,15
67128,250,3,993,13,2,14
67129,244,2,994,8,-4,12
67130,246,4,987,0,-14,0
67131,259,11,982,0,-13,-8
67132,250,1,984,9,-1,9
67133,248,7,987,14,4,14
67134,248,12,998,10,-6,16
67135,246,6,993,4,-23,19
67136,248,7,990,0,-35,20
67137,247,7,984,0,-33,20
67138,246,1,987,4,-21,18
67139,249,10,988,9,-7,16
67140,251,4,992,11,-2,16
67141,240,12,995,9,-9,18
67142,247,8,993,4,-18,18
67143,247,3,988,2,-25,18
67144,249,8,985,2,-25,18
67145,252,5,987,5,-16,18
67146,248,9,986,7,-10,17
67147,245,4,987,7,-14,18
67148,244,11,987,5,-18,19
67149,247,4,987,4,-21,18
67150,247,9,989,5,-16,18
67151,243,5,989,7,-11,17
67152,247,7,992,6,-16,18
67153,247,4,989,2,-25,18
67154,256,2,985,-1,-32,19
67155,246,9,989,1,-29,19
67156,250,11,984,7,-14,17
67157,247,10,987,12,-3,16
67158,243,14,991,9,-4,16
67159,252,11,995,7,-14,18
67160,242,14,988,3,-25,18
67161,244,6,987,2,-28,19
67162,252,9,991,2,-24,19
67163,245,11,986,2,-23,18
67164,254,0,985,3,-22,18
67165,247,8,983,4,-19,18
67166,244,3,986,6,-16,17
67167,245,3,987,7,-14,17
67168,246,9,990,4,-21,18
67169,245,4,985,1,-28,18
67170,247,8,986,0,-31,19
67171,253,11,985,1,-26,18
67172,255,8,984,7,-14,18
67173,252,10,991,10,-5,16
67174,247,0,990,9,-7,17
67175,249,2,993,5,-15,17
67176,239,4,990,0,-25,15
67177,239,0,981,-4,-25,1
67178,256,4,971,2,-6,-6
67179,252,5,976,15,18,-1
67180,247,5,989,20,30,-1
67181,239,7,996,13,18,-4
67182,251,9,998,4,-4,-4
67183,253,1,988,0,-24,7
67184,251,10,988,2,-25,16
67185,244,8,986,7,-12,17
67186,244,8,992,9,-6,16
67187,249,5,984,7,-14,17
67188,248,9,992,5,-20,18
67189,243,7,987,4,-20,17
67190,245,9,992,5,-14,13
67191,243,4,979,8,-2,6
67192,236,4,979,10,12,-7
67193,246,1,977,11,27,-23
67194,243,6,976,13,42,-33
67195,248,11,990,21,53,-32
67196,240,13,997,23,49,-20
67197,242,9,1001,17,31,-14
67198,248,8,994,12,9,-11
67199,245,14,996,7,-7,-2
67200,240,11,993,1,-27,16
67201,243,11,983,-2,-37,22
67202,244,13,990,-3,-43,25
67203,247,9,986,-3,-44,30
67204,253,12,998,-2,-42,35
67205,251,11,977,-2,-49,45
67206,239,5,983,0,-49,52
67207,242,7,989,1,-42,42
67208,242,4,998,-9,-25,28
67209,249,8,991,-31,8,15
67210,248,14,996,-55,46,15
67211,250,14,1009,-86,68,23
67212,253,17,1010,-132,71,35
67213,251,11,1011,-184,80,52
67214,253,9,1003,-231,95,70
67215,248,0,1004,-271,105,84
67216,250,-1,999,-304,110,95
67217,249,0,990,-324,116,106
67218,239,-9,987,-329,121,114
67219,234,-11,986,-315,114,113
67220,228,-17,979,-294,95,108
67221,236,-17,986,-273,87,100
67222,227,-17,984,-258,93,93
67223,224,-29,983,-240,101,84
67224,219,-26,983,-214,96,70
67225,230,-35,973,-172,77,59
67226,226,-33,971,-121,53,49
67227,222,-30,979,-77,35,37
67228,222,-26,986,-46,30,22
67229,220,-34,988,-28,27,11
67230,226,-22,993,-16,25,7
67231,225,-24,995,-11,26,6
67232,223,-30,995,-16,30,4
67233,225,-25,995,-28,38,2
67234,231,-22,1001,-47,49,2
67235,233,-22,997,-67,59,13
67236,225,-31,996,-86,54,32
67237,221,-31,998,-81,9,54
67238,219,-33,996,-75,-37,65
67239,223,-35,983,-65,-66,71
67240,215,-37,982,-50,-67,69
67241,219,-39,979,-38,-44,58
67242,215,-36,983,-30,-8,37
67243,216,-39,983,-21,18,14
67244,220,-32,984,-4,25,-2
67245,223,-33,982,16,19,-9
67246,220,-33,996,39,0,-9
67247,223,-27,994,58,-31,-1
67248,224,-24,999,74,-64,8
67249,231,-28,992,78,-86,20
67250,233,-28,993,70,-92,30
67251,225,-21,999,63,-95,39
67252,221,-25,1003,43,-77,36
67253,229,-23,997,10,-40,23
67254,238,-21,991,-5,-17,26
67255,234,-25,996,-8,-16,43
67256,224,-25,1005,-13,-29,54
67257,222,-35,996,-18,-53,58
67258,232,-34,993,-20,-70,51
67259,231,-33,983,0,-88,59
67260,227,-37,990,29,-102,65
67261,222,-37,990,38,-95,58
67262,224,-32,981,37,-74,41
67263,214,-35,979,57,-79,30
67264,223,-36,978,81,-75,10
67265,229,-29,987,107,-77,0
67266,231,-31,983,133,-98,2
67267,222,-36,983,159,-129,0
67268,226,-34,979,186,-144,-12
67269,234,-22,987,196,-116,-33
67270,238,-20,1001,174,-46,-54
67271,240,-15,1011,127,12,-54
67272,242,-15,1006,90,18,-37
67273,236,-16,1005,62,-6,-18
67274,246,-16,1007,36,-37,2
67275,248,-14,1008,11,-49,29
67276,246,-2,1000,-4,-67,58
67277,224,-16,1001,-2,-124,82
67278,223,-24,981,4,-154,67
67279,230,-27,963,0,-100,23
67280,235,-22,966,6,9,-16
67281,243,-11,988,14,97,-28
67282,236,-12,1007,21,91,-16
67283,228,-16,1017,23,14,-2
67284,236,-19,994,22,-60,-4
67285,254,-14,970,53,-114,16
67286,232,-20,983,91,-137,48
67287,218,-26,991,77,-61,14
67288,240,-21,975,82,-16,-25
67289,236,-24,982,129,-30,-32
67290,236,-12,989,173,-58,-29
67291,237,-16,995,195,-108,-25
67292,239,-6,993,196,-149,-21
67293,243,-12,981,189,-138,-28
67294,246,-14,985,187,-95,-37
67295,239,-10,997,172,-32,-51
67296,246,0,1006,144,4,-55
67297,248,6,1009,105,2,-44
67298,254,7,1006,61,-12,-25
67299,253,9,1004,28,-30,5
67300,248,5,1010,7,-39,34
67301,240,3,1011,-18,-39,46
67302,243,1,1009,-57,-27,43
67303,257,0,989,-100,3,43
67304,251,0,991,-133,42,53
67305,248,1,997,-147,65,63
67306,238,-7,997,-154,61,65
67307,242,-7,1003,-161,39,65
67308,251,-11,973,-140,-14,79
67309,226,-23,975,-49,-149,121
67310,205,-32,978,7,-213,109
67311,213,-27,957,16,-154,30
67312,246,-25,936,55,-63,-37
67313,242,-24,943,132,9,-66
67314,233,-16,976,207,38,-78
67315,225,-10,999,246,9,-88
67316,236,-4,1008,252,-46,-105
67317,243,0,994,224,-66,-121
67318,258,8,982,212,-70,-117
67319,250,7,990,221,-72,-90
67320,248,9,991,232,-79,-68
67321,241,10,1004,226,-88,-63
67322,403,118,1415,187,-78,-70
67323,245,28,998,-21,91,-74
67324,260,13,1001,-87,107,-46
67325,240,11,995,-85,47,-15
67326,243,7,1003,-89,-7,0
67327,233,0,995,-100,-39,-3
67328,237,-1,982,-105,-46,-23
67329,232,-5,982,-94,-33,-49
67330,232,-6,972,-72,-7,-84
67331,234,-14,979,-30,-4,-116
67332,267,26,1033,4,0,-150
67333,253,7,968,-147,101,-131
67334,184,-64,852,18,-87,-103
67335,170,-49,872,489,-415,-171
67336,270,-38,952,-95,263,-322
67337,268,3,958,-147,231,-291
67338,243,-5,949,25,-136,-163
67339,232,-19,941,142,-347,-93
67340,235,-20,954,-107,-1,-118
67341,254,-19,955,-121,217,-154
67342,256,1,975,28,147,-114
67343,244,15,992,161,-108,-24
67344,241,31,976,-91,-65,21
67345,243,12,973,-155,-113,60
67346,234,4,978,-128,-101,55
67347,228,2,990,-99,-23,16
67348,227,4,953,-62,32,-46
67349,259,22,955,76,-138,-28
67350,279,36,1095,238,-410,37
67351,266,11,922,-28,-197,30
67352,283,22,1145,71,-280,60
67353,241,-6,914,22,-174,21
67354,234,-95,938,-31,-33,70
67355,247,-218,1043,2,4,410
67356,167,-203,1068,-7,18,648
67357,142,-171,1104,-53,48,733
67358,237,-145,979,-174,123,594
67359,280,-124,1041,-448,403,399
67360,325,-159,1009,-705,759,359
67361,273,-106,861,-840,845,406
67362,67,458,640,-739,771,466
67363,231,-209,976,-682,532,659
67364,248,-115,913,-505,256,653
67365,250,-122,963,-609,76,478
67366,306,-153,881,-592,58,396
67367,282,-83,959,-445,-32,431
67368,243,-103,1003,-314,-251,445
67369,212,-69,964,-58,-460,507
67370,159,-52,1218,199,-644,632
67371,188,-179,745,288,-870,863
67372,155,14,920,540,-826,922
67373,177,-63,933,609,-672,834
67374,159,-40,974,823,-569,1092
67375,178,-47,1036,917,-487,1416
67376,141,-36,1051,868,-326,1485
67377,180,-13,921,826,-96,1472
67378,223,0,973,734,155,1414
67379,242,56,1142,865,472,1276
67380,296,0,1177,807,609,1162
67381,294,123,1553,746,637,1029
67382,360,112,1052,664,589,865
67383,360,108,1008,656,453,667
67384,347,122,1020,570,141,477
67385,334,130,964,543,-261,279
67386,309,215,951,708,-667,9
67387,276,229,808,-352,144,-258
67388,306,177,856,-354,-26,-294
67389,263,166,925,97,-525,-163
67390,243,121,929,-208,-288,-83
67391,241,149,955,-312,-302,-57
67392,253,44,965,-169,-442,-107
67393,235,-24,932,-208,-229,-217
67394,272,-22,959,-346,54,-289
67395,228,41,969,-198,-80,-253
67396,338,-65,927,-23,-403,-231
67397,215,-30,995,-119,-31,-192
67398,236,-9,976,-151,21,-242
67399,243,32,949,-126,-98,-302
67400,274,0,944,-74,-55,-293
67401,279,-101,980,48,-38,-230
67402,232,-29,950,86,-130,-156
67403,208,-24,987,73,0,-144
67404,229,-8,1027,153,-54,-185
67405,263,-36,984,79,0,-135
67406,279,-138,1035,41,63,-51
67407,237,-72,976,-4,0,18
67408,255,-111,1015,-5,-69,92
67409,262,-82,987,-33,-154,105
67410,236,-28,943,-1,-221,92
67411,248,-26,934,-47,-4,32
67412,264,40,1022,88,-80,31
67413,234,-33,962,135,-28,-3
67414,239,-37,976,158,35,-66
67415,232,-28,964,170,56,-133
67416,256,0,987,151,102,-179
67417,426,54,1243,148,109,-148
67418,279,2,996,55,32,24
67419,265,44,987,-82,-37,114
67420,280,7,995,-128,-98,114
67421,272,10,976,-131,-116,140
67422,240,-7,981,-133,-79,152
67423,239,-6,984,-125,-60,124
67424,253,-10,968,-114,-54,84
67425,258,-12,940,-74,-41,53
67426,255,-18,942,-1,-23,39
67427,260,-4,977,63,-3,28
67428,255,-7,998,79,1,16
67429,263,-7,982,67,0,4
67430,261,0,977,70,2,0
67431,254,-6,998,78,5,0
67432,259,-1,1013,61,0,9
67433,253,-9,996,13,-18,18
67434,254,-6,979,-4,-23,20
67435,263,-6,975,9,-18,19
67436,250,0,979,26,-11,21
67437,254,-1,996,24,-14,23
67438,261,-1,984,17,-16,24
67439,259,-1,970,23,-16,32
67440,253,-9,981,36,-12,37
67441,255,-11,990,37,-11,34
67442,253,-6,989,31,-12,24
67443,259,-9,984,25,-12,16
67444,265,-9,986,24,-11,12
67445,263,-3,996,15,-15,15
67446,256,-8,985,-1,-21,20
67447,255,-5,975,0,-21,17
67448,252,-9,989,16,-14,15
67449,262,2,993,16,-14,14
67450,250,-3,994,10,-17,15
67451,261,-6,992,9,-18,16
67452,259,-3,989,14,-15,14
67453,240,31,982,14,-16,-1
67454,272,52,951,17,-37,-131
67455,295,83,944,14,-32,-318
67456,349,105,1007,31,-4,-422
67457,316,99,998,-106,-70,-471
67458,263,114,888,-79,-7,-452
67459,205,156,1322,-44,108,-539
67460,264,72,1044,-16,-21,-633
67461,193,110,887,-175,85,-580
67462,273,47,921,-242,-14,-526
67463,258,55,1029,-165,-81,-380
67464,175,93,852,-249,17,-207
67465,285,39,1154,-28,-212,-177
67466,232,-20,903,2,-224,-107
67467,209,-3,941,-77,-107,15
67468,199,-11,923,-97,77,91
67469,204,-24,1009,193,-63,-42
67470,268,-96,1000,401,-164,-198
67471,183,-37,888,116,128,-198
67472,261,-72,865,-131,-19,-192
67473,316,-84,958,-53,-58,-58
67474,217,-55,869,58,100,58
67475,203,-78,1197,120,151,99
67476,219,-135,917,-74,79,26
67477,256,-119,968,-25,-11,112
67478,236,-136,1000,32,-34,107
67479,209,-60,964,28,-20,33
67480,227,-34,956,60,4,-70
67481,283,-24,946,-14,-54,-100
67482,266,34,1011,4,-2,-85
67483,281,16,975,10,-4,-30
67484,245,-6,957,2,-21,13
67485,253,0,975,3,-24,20
67486,252,-1,980,4,-21,18
67487,257,-4,987,4,-20,18
67488,251,2,987,6,-18,18
67489,252,4,987,6,-19,18
67490,253,3,994,6,-17,18
67491,257,0,990,7,-18,18
67492,257,0,988,6,-18,17
67493,256,7,987,7,-19,18
67494,259,5,988,5,-18,18
67495,257,2,993,5,-18,18
67496,260,9,990,4,-19,18
67497,257,5,987,5,-18,18
67498,255,0,985,4,-18,18
67499,256,2,990,4,-19,18
67500,251,5,985,5,-19,18
67501,255,0,990,5,-19,19
67502,256,1,984,4,-18,18
67503,256,2,994,4,-18,19
67504,256,-2,990,4,-17,18
67505,246,0,988,4,-19,19
67506,257,-2,990,4,-18,19
67507,255,-5,988,4,-18,18
67508,254,4,988,5,-19,20
67509,252,-4,983,4,-20,21
67510,257,0,988,4,-19,23
67511,250,-3,989,6,-18,28
67512,258,0,982,6,-18,28
67513,259,0,990,7,-19,31
67514,256,0,990,7,-20,32
67515,251,0,994,8,-19,30
67516,257,-4,990,7,-18,28
67517,252,-3,990,7,-19,28
67518,255,-3,984,5,-18,25
67519,250,-2,985,4,-19,23
67520,256,0,981,5,-19,21
67521,257,5,988,5,-19,20
67522,251,0,981,6,-18,21
67523,254,-6,991,5,-18,19
67524,256,1,982,4,-19,18
67525,251,0,988,4,-19,18
67526,257,8,984,4,-19,16
67527,253,12,989,4,-18,18
67528,257,3,989,5,-18,17
67529,257,4,990,4,-18,18
67530,255,9,986,4,-18,18
67531,255,0,987,4,-18,17
67532,255,2,990,4,-18,18
67533,252,-1,985,4,-19,18
67534,261,2,987,4,-18,18
67535,253,0,986,4,-18,18
67536,256,1,986,4,-19,18
67537,254,0,987,4,-18,18
67538,257,0,988,1,-18,18
67539,257,1,988,0,-19,20
67540,256,0,982,2,-20,20
67541,254,-2,987,4,-19,18
67542,257,1,986,4,-18,16
67543,257,0,981,4,-19,18
67544,256,4,987,1,-20,18
67545,253,-1,987,0,-21,18
67546,258,-2,990,-1,-20,21
67547,255,-4,979,0,-21,21
67548,255,-4,991,0,-21,21
67549,259,-2,990,-3,-21,20
67550,260,0,987,-5,-22,21
67551,259,-3,982,-9,-23,22
67552,258,-2,983,-12,-24,23
67553,255,0,986,-10,-23,27
67554,255,1,989,-8,-23,28
67555,258,-2,991,-7,-22,29
67556,249,1,990,-8,-23,28
67557,256,0,988,-11,-24,28
67558,250,-1,991,-12,-24,28
67559,254,0,987,-11,-24,26
67560,256,-1,985,-10,-23,25
67561,256,-4,987,-14,-25,25
67562,253,0,981,-15,-24,24
67563,256,-7,984,-11,-23,24
67564,260,-2,984,0,-19,23
67565,253,0,987,9,-16,23
67566,257,0,991,7,-16,21
67567,254,0,994,-1,-20,23
67568,253,2,992,-9,-23,25
67569,256,-3,988,-10,-24,28
67570,250,0,985,-9,-24,30
67571,251,-1,991,-8,-23,30
67572,255,-1,990,-11,-23,28
67573,259,-5,997,-22,-28,29
67574,262,0,986,-32,-29,34
67575,263,-2,985,-36,-31,42
67576,264,0,985,-33,-32,49
67577,254,-6,988,-30,-30,55
67578,256,-4,987,-31,-30,55
67579,250,-5,981,-36,-32,56
67580,247,-9,982,-32,-29,74
67581,242,-14,994,-18,-27,116
67582,233,-7,997,2,-34,193
67583,250,2,990,13,-62,191
67584,286,7,967,-22,-41,88
67585,271,-10,962,-7,-24,35
67586,248,-11,976,26,-13,37
67587,245,-6,992,35,-11,19
67588,255,-1,987,28,-13,2
67589,265,0,990,24,-14,6
67590,253,-13,991,22,-14,14
67591,257,-10,991,11,-17,16
67592,262,-9,994,-2,-20,18
67593,257,-12,985,-9,-23,22
67594,251,-5,988,-11,-23,22
67595,259,-6,992,-11,-23,21
67596,259,-8,983,-14,-24,22
67597,259,-4,979,-15,-25,23
67598,253,-11,974,-7,-21,22
67599,251,-4,971,8,-18,17
67600,261,-7,981,25,-12,12
67601,253,-8,984,44,-7,9
67602,251,1,985,55,-5,6
67603,256,-5,996,51,-6,5
67604,258,-4,996,37,-10,5
67605,258,-7,998,14,-14,7
67606,264,-2,990,-2,-19,17
67607,260,0,988,-16,-24,24
67608,260,-3,996,-28,-26,27
67609,260,-11,967,-37,-32,27
67610,258,-14,978,-22,-25,28
67611,253,-13,975,10,-18,22
67612,252,-13,978,28,-12,11
67613,252,-6,990,33,-11,11
67614,249,-9,980,34,-10,9
67615,254,-15,994,37,-9,5
67616,259,-9,995,34,-8,0
67617,250,-4,990,25,-11,-2
67618,255,-6,989,15,-14,1
67619,257,-4,985,7,-17,8
67620,258,-8,981,8,-17,11
67621,253,-9,986,14,-16,12
67622,248,-5,987,20,-14,11
67623,261,-6,987,23,-13,8
67624,256,-8,989,23,-13,7
67625,255,-5,987,19,-14,9
67626,260,-2,989,14,-15,13
67627,251,0,997,4,-17,18
67628,261,0,992,-4,-20,20
67629,255,-6,1002,-16,-24,23
67630,262,-9,996,-26,-26,26
67631,265,-1,996,-39,-30,32
67632,264,-4,990,-46,-32,41
67633,262,-3,984,-42,-34,55
67634,264,1,991,-43,-34,66
67635,254,-4,992,-57,-39,69
67636,258,-8,985,-78,-43,68
67637,261,-8,980,-92,-40,72
67638,254,-7,986,-102,-25,74
67639,258,-5,987,-113,7,70
67640,251,-16,992,-131,46,56
67641,251,-15,980,-147,75,41
67642,261,-14,990,-155,93,31
67643,253,-17,984,-150,95,31
67644,253,-19,983,-133,83,33
67645,256,-13,987,-110,61,33
67646,255,-19,988,-90,34,35
67647,252,-24,985,-74,9,36
67648,255,-22,983,-63,4,35
67649,254,-25,983,-54,10,33
67650,242,-23,991,-47,17,29
67651,244,-20,992,-46,27,18
67652,245,-19,988,-45,30,11
67653,251,-24,987,-41,28,11
67654,252,-22,984,-38,23,16
67655,247,-24,995,-31,16,23
67656,242,-24,989,-28,8,25
67657,250,-22,992,-35,1,27
67658,250,-24,993,-49,2,30
67659,249,-23,994,-63,10,37
67660,255,-20,997,-81,23,43
67661,252,-22,1000,-99,34,48
67662,246,-22,989,-120,42,48
67663,246,-24,989,-139,46,53
67664,252,-28,990,-152,45,63
67665,250,-34,994,-158,44,73
67666,245,-29,990,-158,37,82
67667,238,-32,995,-158,25,84
67668,243,-27,988,-156,18,81
67669,245,-38,984,-156,20,78
67670,246,-40,990,-160,30,77
67671,236,-40,993,-169,47,77
67672,245,-49,983,-169,60,74
67673,235,-49,985,-161,63,77
67674,234,-52,986,-151,53,74
67675,233,-49,982,-134,35,65
67676,236,-55,974,-105,11,52
67677,235,-51,974,-65,-6,42
67678,229,-53,976,-16,-16,30
67679,228,-57,973,27,-25,15
67680,228,-53,979,61,-34,-4
67681,239,-56,983,92,-44,-20
67682,240,-49,972,119,-52,-29
67683,238,-48,977,144,-59,-31
67684,243,-44,987,168,-67,-34
67685,239,-40,992,181,-77,-39
67686,244,-38,991,185,-88,-41
67687,249,-44,991,180,-91,-35
67688,238,-47,1000,163,-84,-18
67689,240,-50,1012,133,-74,9
67690,243,-58,1012,91,-53,39
67691,234,12,979,60,-63,10
67692,267,-27,979,83,-97,-21
67693,264,-29,981,106,-96,2
67694,242,-32,996,106,-70,23
67695,234,-29,1005,73,-39,14
67696,243,-33,996,30,-19,-10
67697,258,-32,985,12,-17,-16
67698,259,-28,983,20,-20,0
67699,249,-30,994,30,-16,18
67700,242,-30,999,21,-12,18
67701,245,-33,999,2,-11,9
67702,245,-25,991,-15,-9,7
67703,250,-30,982,-18,-3,13
67704,241,-32,991,-18,5,18
67705,237,-30,993,-18,7,16
67706,237,-34,985,-16,0,12
67707,242,-29,982,-7,-7,7
67708,247,-35,981,7,-15,8
67709,245,-31,984,21,-17,4
67710,253,-36,983,30,-13,0
67711,248,-33,990,31,-9,-2
67712,247,-33,989,30,-9,-4
67713,241,-32,987,37,-18,-2
67714,248,-28,993,45,-32,0
67715,245,-33,977,55,-44,0
67716,246,-29,989,67,-56,2
67717,246,-34,989,78,-61,3
67718,243,-26,987,86,-64,0
67719,243,-31,989,93,-67,-4
67720,246,-26,987,98,-67,-9
67721,249,-24,990,104,-65,-12
67722,242,-25,988,107,-61,-16
67723,246,-27,986,107,-57,-21
67724,246,-27,989,104,-50,-26
67725,246,-25,988,101,-45,-28
67726,247,-20,988,104,-47,-30
67727,243,-29,986,115,-56,-31
67728,246,-20,978,134,-71,-30
67729,247,-19,984,153,-91,-30
67730,251,-19,985,172,-106,-31
67731,251,-15,981,190,-114,-34
67732,250,-10,981,204,-116,-36
67733,248,-9,982,211,-113,-42
67734,248,-9,985,217,-109,-49
67735,258,-5,985,221,-107,-56
67736,256,-2,986,225,-105,-58
67737,243,27,969,170,0,-67
67738,254,-2,998,137,38,-66
67739,264,5,999,130,-21,-56
67740,277,8,1007,63,9,-42
67741,271,8,1011,24,0,-2
67742,263,9,1008,-2,-30,32
67743,257,6,1002,-31,-61,53
67744,261,7,989,-49,-53,60
67745,249,-1,982,-53,-38,60
67746,248,-5,985,-49,-35,50
67747,254,-2,975,-40,-30,35
67748,256,-7,976,-18,-24,25
67749,250,-9,974,9,-17,22
67750,250,-6,973,37,-9,7
67751,256,-2,976,64,-2,-1
67752,253,-1,991,72,0,-8
67753,247,0,996,58,-3,-16
67754,255,0,1010,37,-1,-19
67755,270,8,1006,8,-11,-14
67756,262,3,982,-7,-24,12
67757,251,-2,986,-9,-25,26
67758,253,-2,981,-11,-22,23
67759,257,0,984,-9,-22,21
67760,257,-5,980,-5,-21,20
67761,259,-7,973,10,-16,16
67762,256,-6,972,34,-11,10
67763,259,7,1000,35,4,5
67764,255,5,1012,9,-15,14
67765,263,-8,974,-23,-39,23
67766,254,-2,975,-25,-30,30
67767,251,-1,976,-11,-24,31
67768,249,-3,973,1,-21,29
67769,252,-6,977,18,-14,18
67770,251,-3,984,38,-9,10
67771,259,1,1016,28,-1,7
67772,262,9,998,-7,-29,18
67773,258,-6,975,-25,-33,30
67774,248,-3,977,-15,-26,35
67775,244,-7,980,1,-21,27
67776,258,0,972,15,-17,14
67777,254,-2,987,31,-12,9
67778,251,3,1006,27,-9,8
67779,262,4,975,0,-22,10
67780,247,-6,980,2,-20,18
67781,263,0,994,10,-16,16
67782,258,-1,985,1,-21,19
67783,256,0,979,2,-20,21
67784,259,5,990,7,-18,17
67785,255,-3,985,3,-21,18
67786,259,0,983,4,-20,18
67787,260,1,991,2,-20,18
67788,253,0,982,3,-20,20
67789,256,4,990,5,-18,18
67790,254,0,996,0,-19,20
67791,256,-2,998,-11,-23,23
67792,257,0,987,-18,-25,25
67793,257,-2,975,-14,-25,29
67794,251,-5,977,0,-21,30
67795,253,-6,974,17,-16,24
67796,253,-1,984,30,-12,12
67797,258,-1,991,37,-10,9
67798,262,4,1006,9,-19,11
67799,249,-8,982,-7,-21,21
67800,260,-3,982,-1,-21,18
67801,254,0,979,7,-18,16
67802,258,-3,986,11,-14,15
67803,258,-2,993,6,-18,14
67804,256,-2,981,7,-19,15
67805,257,1,984,6,-18,16
67806,255,7,989,4,-19,15
67807,254,2,980,4,-18,17
67808,261,4,982,6,-17,16
67809,256,-1,987,5,-18,17
67810,251,0,988,4,-18,17
67811,262,1,989,4,-17,17
67812,251,4,993,7,-17,16
67813,263,3,985,4,-19,15
67814,261,3,991,6,-16,14
67815,262,2,988,4,-18,16
67816,256,-2,983,3,-18,18
67817,255,-1,987,5,-17,18
67818,252,0,981,4,-20,18
67819,253,0,988,5,-18,18
67820,253,3,989,3,-19,18
67821,248,-5,984,3,-18,19
67822,251,-3,992,4,-18,18
67823,248,-9,983,2,-19,18
67824,258,1,987,2,-20,17
67825,255,-9,981,4,-18,18
67826,256,2,994,8,-15,15
67827,258,-6,984,4,-18,16
67828,257,-1,992,7,-17,18
67829,254,-1,991,5,-18,16
67830,253,-2,989,3,-18,15
67831,255,1,984,5,-16,12
67832,254,2,983,4,-16,7
67833,255,-2,985,5,-14,3
67834,255,-3,974,9,-8,-3
67835,258,-3,976,17,-1,-10
67836,260,0,986,23,7,-14
67837,253,0,984,27,11,-15
67838,254,3,996,28,11,-14
67839,257,0,997,18,2,-16
67840,259,0,999,1,-11,-22
67841,269,-2,991,-21,-24,-29
67842,245,10,977,-23,-30,-16
67843,256,1,988,-2,-23,11
67844,261,-4,982,9,-16,20
67845,261,7,1007,13,-11,23
67846,262,11,1010,-13,-41,49
67847,260,5,1008,-50,-82,77
67848,257,-2,991,-100,-47,83
67849,248,-12,967,-105,-38,78
67850,243,-13,957,-60,-37,57
67851,248,-12,965,-14,-23,30
67852,254,-9,956,28,-11,0
67853,246,-15,961,74,7,-51
67854,252,-18,969,116,28,-116
67855,266,-14,1047,91,76,-158
67856,268,1,1011,35,72,-175
67857,290,15,1010,-36,-10,-184
67858,273,19,945,-78,-56,-132
67859,248,18,963,-58,-42,-58
67860,225,7,986,0,-20,18
67861,244,-10,1001,9,-18,31
67862,255,0,979,0,-22,16
67863,253,1,977,12,-16,9
67864,256,0,1005,14,-14,5
67865,253,-1,980,0,-20,4
67866,251,0,976,5,-16,1
67867,260,5,998,8,-12,-4
67868,258,1,989,2,-18,-7
67869,252,0,990,0,-22,-4
67870,252,1,976,-2,-27,-2
67871,257,-3,988,1,-23,6
67872,254,-5,985,0,-23,2
67873,260,3,994,-4,-27,-13
67874,266,-2,975,-11,-28,-37
67875,254,-6,986,-14,-25,-46
67876,250,-6,987,-9,-19,-37
67877,245,-5,996,-4,-16,-29
67878,250,1,988,-9,-16,-43
67879,249,4,997,-1,-15,-18
67880,254,1,990,4,-18,8
67881,265,0,989,4,-18,16
67882,255,3,987,4,-18,17
67883,254,6,988,4,-20,16
67884,257,1,984,5,-20,17
67885,256,1,985,4,-20,18
67886,256,0,986,4,-18,18
67887,256,0,983,4,-18,18
67888,253,4,988,4,-19,18
67889,257,4,987,4,-19,18
67890,256,9,983,3,-19,18
67891,251,4,987,4,-19,18
67892,255,0,986,4,-20,18
67893,253,0,982,4,-19,19
67894,261,0,987,4,-19,18
67895,250,0,991,4,-19,18
67896,251,2,983,4,-18,17
67897,258,0,986,4,-18,17
67898,258,-4,990,4,-18,18
67899,255,0,989,4,-19,18
# samples=1985
# gaps=0
