# falldetect-gkl fd_studio v1
# label=walking
# mount=neck
# subject=s01
# started=2026-09-20T19:01:14
# units=accel milli-g, gyro deci-dps
# firmware=unknown
# notes=
seq,ax,ay,az,gx,gy,gz
786962,-401,-4,919,-14,37,11
786963,-408,-4,915,-7,30,18
786964,-405,6,917,-10,-7,14
786965,-398,-10,918,-7,-42,9
786966,-396,-3,917,-5,-43,11
786967,-399,3,925,-7,-40,10
786968,-398,-8,933,-7,-26,7
786969,-402,-6,931,-10,-10,7
786970,-399,-4,924,-11,-6,10
786971,-404,0,926,-8,-16,11
786972,-399,-1,931,-9,-17,9
786973,-397,-4,934,-10,-9,7
786974,-406,-9,923,-14,-4,7
786975,-401,-5,926,-11,-15,7
786976,-399,-4,924,-7,-27,13
786977,-392,-5,927,-2,-30,15
786978,-400,-1,926,-4,-23,13
786979,-405,-11,933,-6,-9,12
786980,-405,0,928,-11,0,9
786981,-399,-6,930,-11,-4,10
786982,-405,-2,914,-10,-17,10
786983,-398,-6,914,-14,-27,11
786984,-399,-7,923,-3,-32,10
786985,-398,0,937,-2,-22,13
786986,-402,0,925,-9,-18,11
786987,-403,-7,930,-22,-20,3
786988,-395,-5,927,-25,-14,0
786989,-397,-8,917,-23,-14,0
786990,-405,-8,923,-15,-28,4
786991,-406,-3,925,-14,-43,7
786992,-398,-10,932,-16,-49,7
786993,-397,-10,932,-13,-40,9
786994,-403,-6,930,-11,-28,9
786995,-403,-9,923,-9,-24,11
786996,-398,-6,924,-6,-25,12
786997,-393,-9,923,-5,-22,14
786998,-396,-4,931,-5,-26,12
786999,-402,-7,926,-13,-32,10
787000,-400,-6,929,-18,-34,5
787001,-405,-8,926,-24,-30,2
787002,-401,-2,930,-30,-24,0
787003,-402,-5,923,-47,-29,-4
787004,-395,-14,916,-37,-45,-7
787005,-401,-19,924,-28,-39,0
787006,-404,-8,933,-11,-30,7
787007,-405,-5,947,-13,-25,8
787008,-399,-13,923,-21,-24,7
787009,-395,-15,926,-13,-21,9
787010,-396,-12,924,-2,-14,16
787011,-405,-10,925,-2,-22,16
787012,-398,-9,927,-9,-37,10
787013,-397,-18,920,-13,-44,8
787014,-400,-17,925,-14,-38,8
787015,-413,-19,919,-5,-34,14
787016,-393,-2,932,0,-35,14
787017,-399,-12,932,-5,-43,11
787018,-390,-24,926,-4,-34,12
787019,-402,-8,936,4,-23,22
787020,-406,-3,935,4,-21,23
787021,-392,-12,926,3,-21,20
787022,-391,-17,923,9,-10,23
787023,-400,-12,923,16,-10,28
787024,-402,-9,930,19,-20,28
787025,-397,-10,932,17,-24,28
787026,-390,-17,932,14,-20,25
787027,-392,-16,935,17,-6,25
787028,-399,-10,926,22,4,29
787029,-404,-7,929,25,0,31
787030,-400,-10,926,16,-13,30
787031,-394,-14,922,12,-17,25
787032,-392,-6,926,7,-11,21
787033,-399,-11,925,-4,-7,17
787034,-395,-6,930,-11,-14,10
787035,-395,-12,926,-11,-23,9
787036,-397,-12,921,-19,-19,8
787037,-400,-7,929,-28,-22,4
787038,-397,-12,932,-18,-21,4
787039,-401,-13,930,-9,-5,13
787040,-395,-11,929,-16,-5,9
787041,-398,-12,929,-12,-10,11
787042,-394,-16,921,-4,-5,18
787043,-399,-9,924,0,-2,23
787044,-408,0,924,-14,-13,16
787045,-391,-13,912,-35,-34,-2
787046,-387,-33,925,-22,-30,-3
787047,-393,-19,934,-3,-3,15
787048,-414,-5,954,4,0,23
787049,-400,-17,932,-14,-4,17
787050,-388,-17,920,-14,-4,16
787051,-394,-20,915,-5,5,28
787052,-402,-7,924,2,-1,28
787053,-396,-11,918,-11,-23,16
787054,-403,-15,918,-20,-30,11
787055,-397,-12,929,-20,-27,13
787056,-408,-15,938,-16,-19,16
787057,-403,-20,938,-16,0,21
787058,-409,-12,943,-14,25,26
787059,-402,-9,932,-39,60,39
787060,-398,-15,921,-18,55,34
787061,-398,-21,914,-9,27,23
787062,-397,-20,907,-1,23,39
787063,-417,-9,916,13,-8,37
787064,-403,-5,920,-6,-36,26
787065,-396,-17,925,-8,-49,21
787066,-395,-22,935,3,-44,18
787067,-401,-19,931,5,-16,23
787068,-410,-7,938,-2,4,23
787069,-401,-13,928,-5,10,25
787070,-402,-12,930,-3,0,23
787071,-397,-14,926,0,2,32
787072,-402,-13,921,4,3,34
787073,-405,-9,928,2,-1,30
787074,-394,-5,922,-18,-6,23
787075,-389,-18,916,-9,-7,24
787076,-409,-22,931,0,-11,25
787077,-394,-18,921,9,-10,29
787078,-405,-14,927,14,-16,27
787079,-399,-13,924,14,-15,30
787080,-393,-19,922,25,-17,31
787081,-406,-19,931,32,-10,38
787082,-405,-11,931,32,-5,39
787083,-407,-15,932,28,-9,33
787084,-395,-17,921,33,0,35
787085,-406,-20,926,49,9,44
787086,-408,-13,935,45,12,47
787087,-408,-13,924,35,4,46
787088,-409,-6,917,27,-17,42
787089,-409,-10,915,22,-38,38
787090,-399,-13,919,18,-53,34
787091,-402,-5,924,11,-57,30
787092,-394,-8,925,-1,-51,21
787093,-394,-17,931,-5,-35,14
787094,-401,-16,925,3,-16,17
787095,-409,-11,923,19,-4,27
787096,-403,-12,925,30,-8,33
787097,-406,-14,923,39,-23,38
787098,-400,-11,923,42,-41,40
787099,-387,-10,921,51,-46,42
787100,-401,-15,921,56,-37,50
787101,-405,-3,923,57,-29,50
787102,-400,-10,924,60,-21,51
787103,-403,-8,922,59,-25,49
787104,-402,-6,923,58,-30,46
787105,-394,-12,921,64,-35,48
787106,-403,-8,932,72,-32,56
787107,-403,-1,927,68,-33,57
787108,-407,-5,928,67,-45,56
787109,-402,0,928,54,-55,46
787110,-398,-12,919,53,-46,44
787111,-399,-5,932,57,-23,46
787112,-405,-1,928,56,-7,46
787113,-406,0,927,53,-7,46
787114,-401,-6,922,46,-18,43
787115,-396,-2,914,47,-32,42
787116,-403,-2,921,53,-41,44
787117,-403,3,928,54,-43,44
787118,-403,0,930,51,-45,39
787119,-399,-3,933,49,-39,37
787120,-404,-2,938,46,-30,37
787121,-404,-2,930,49,-25,44
787122,-399,0,925,59,-31,49
787123,-404,5,928,58,-42,54
787124,-396,3,931,52,-56,48
787125,-396,11,933,36,-55,33
787126,-394,-7,926,23,-25,40
787127,-401,1,929,45,-16,51
787128,-415,22,946,35,-17,41
787129,-388,2,920,-1,-23,18
787130,-386,-4,915,-2,-24,9
787131,-398,2,926,3,-19,19
787132,-406,9,944,7,-41,13
787133,-395,-2,935,-5,-49,5
787134,-397,-4,939,-2,-35,12
787135,-395,6,934,-9,-8,14
787136,-397,7,923,-18,10,4
787137,-393,-4,920,-22,17,0
787138,-397,3,919,-15,7,0
787139,-404,4,927,-4,-16,10
787140,-404,-1,933,4,-41,14
787141,-397,-4,934,13,-46,19
787142,-399,3,941,9,-28,21
787143,-394,1,935,7,0,17
787144,-400,3,934,-2,18,13
787145,-389,11,935,1,21,10
787146,-407,-10,921,9,7,23
787147,-411,6,917,4,-14,28
787148,-398,3,919,-9,-39,11
787149,-396,0,916,-14,-44,2
787150,-398,-1,932,-14,-31,4
787151,-397,5,938,-12,-21,5
787152,-400,0,935,-7,-16,9
787153,-393,-1,927,-4,-9,11
787154,-406,-3,925,-4,2,16
787155,-406,4,926,0,7,20
787156,-402,0,918,-2,-2,16
787157,-396,0,915,5,-9,16
787158,-396,0,924,11,-19,19
787159,-401,1,928,14,-35,20
787160,-400,0,936,15,-37,23
787161,-393,1,931,18,-20,23
787162,-398,-1,937,19,4,22
787163,-404,-3,930,20,18,27
787164,-405,-1,928,23,14,29
787165,-405,-2,918,26,2,30
787166,-397,6,928,21,-6,28
787167,-404,4,929,19,-7,23
787168,-405,0,923,14,-14,20
787169,-404,0,921,9,-21,21
787170,-404,5,922,9,-36,18
787171,-400,2,924,9,-43,17
787172,-400,8,933,8,-38,16
787173,-410,8,925,0,-31,16
787174,-404,5,930,-3,-22,12
787175,-404,0,933,-2,-10,12
787176,-403,3,921,4,-5,18
787177,-403,6,923,4,-11,20
787178,-399,8,934,9,-19,18
787179,-402,7,928,-1,-21,14
787180,-399,4,930,2,-18,14
787181,-403,-3,937,4,-7,16
787182,-404,6,932,10,4,18
787183,-403,2,923,11,12,23
787184,-404,-1,920,21,6,30
787185,-402,2,916,33,-12,35
787186,-401,7,906,25,-22,34
787187,-393,10,921,24,-34,28
787188,-389,0,926,18,-38,20
787189,-397,4,926,16,-30,18
787190,-405,3,930,23,-26,26
787191,-403,7,929,24,-30,28
787192,-396,5,937,17,-22,29
787193,-396,8,934,6,0,23
787194,-395,1,922,0,13,16
787195,-409,0,919,1,7,19
787196,-396,3,919,6,-19,18
787197,-401,-1,925,4,-44,17
787198,-403,3,930,3,-51,16
787199,-397,5,935,-1,-56,12
787200,-396,6,935,-9,-49,8
787201,-401,3,936,-14,-27,4
787202,-406,0,935,-22,-1,3
787203,-397,-4,929,-9,14,12
787204,-409,0,914,10,20,29
787205,-406,6,910,16,7,33
787206,-408,6,915,0,-19,24
787207,-388,4,903,-4,-52,10
787208,-405,0,918,3,-64,11
787209,-407,8,937,2,-60,11
787210,-401,-3,945,-4,-37,10
787211,-400,-9,936,-3,0,14
787212,-400,0,926,9,27,25
787213,-399,1,911,16,25,35
787214,-399,5,907,22,-12,32
787215,-398,17,914,16,-56,25
787216,-404,3,928,16,-81,18
787217,-401,4,935,8,-64,18
787218,-394,-1,945,2,-28,15
787219,-397,6,939,-10,4,10
787220,-400,4,928,-9,20,11
787221,-404,2,912,-13,13,11
787222,-405,-3,908,-9,-11,11
787223,-394,7,926,-6,-33,9
787224,-399,6,936,-13,-41,4
787225,-407,8,931,-19,-41,0
787226,-396,3,935,-22,-34,0
787227,-400,-6,931,-17,-22,7
787228,-406,3,930,-9,-4,17
787229,-403,4,932,-9,9,16
787230,-401,0,920,-11,11,13
787231,-398,0,914,-6,-1,14
787232,-400,1,921,1,-19,18
787233,-400,13,930,3,-30,18
787234,-398,13,933,-7,-30,11
787235,-400,0,928,-15,-25,4
787236,-399,-10,927,-9,-21,5
787237,-400,-1,928,-1,-12,17
787238,-402,7,934,2,-7,20
787239,-403,3,920,-4,-14,16
787240,-395,-4,926,-3,-21,13
787241,-397,0,920,1,-21,18
787242,-401,4,919,8,-23,22
787243,-397,5,926,7,-27,19
787244,-386,7,934,7,-30,11
787245,-393,-6,932,4,-25,12
787246,-406,3,926,5,-22,17
787247,-395,-1,924,7,-23,19
787248,-400,-4,932,14,-17,24
787249,-396,0,924,21,-7,28
787250,-400,-3,921,24,0,31
787251,-405,1,920,26,-8,33
787252,-398,0,920,27,-30,32
787253,-404,3,934,24,-45,29
787254,-398,0,935,22,-35,28
787255,-398,8,938,16,-15,26
787256,-402,-1,929,15,0,28
787257,-403,6,927,12,-2,28
787258,-402,1,916,16,-18,25
787259,-396,-1,925,21,-32,29
787260,-403,3,929,22,-35,28
787261,-405,7,941,19,-35,25
787262,-395,0,922,21,-34,27
787263,-393,2,930,29,-27,32
787264,-399,9,926,29,-21,35
787265,-402,5,928,19,-22,28
787266,-395,-4,919,14,-28,21
787267,-396,-2,923,22,-28,25
787268,-404,2,933,27,-22,32
787269,-404,12,928,21,-29,29
787270,-398,1,931,18,-34,25
787271,-393,-3,922,16,-32,25
787272,-406,30,939,-16,-32,7
787273,-382,-16,931,-11,-27,-1
787274,-396,-5,910,-3,7,23
787275,-413,25,931,9,2,27
787276,-396,3,923,-2,-23,14
787277,-396,-3,917,-4,-38,9
787278,-394,-4,910,15,-36,23
787279,-403,8,935,26,-33,32
787280,-405,5,925,18,-44,28
787281,-396,1,927,25,-53,28
787282,-395,1,928,28,-45,36
787283,-400,11,929,29,-49,35
787284,-400,2,930,23,-55,31
787285,-400,8,933,21,-60,29
787286,-397,6,931,17,-58,26
787287,-400,1,933,18,-53,28
787288,-392,-1,926,25,-47,32
787289,-393,0,927,42,-38,37
787290,-399,1,930,56,-33,49
787291,-400,8,930,57,-58,39
787292,-405,2,925,61,-83,42
787293,-395,6,918,72,-111,41
787294,-385,3,925,85,-122,50
787295,-397,5,935,94,-128,53
787296,-401,7,943,88,-130,45
787297,-386,23,932,74,-134,28
787298,-386,9,944,77,-113,43
787299,-388,14,938,65,-89,46
787300,-392,20,927,53,-67,46
787301,-394,17,956,34,-58,27
787302,-387,27,934,-12,-52,-2
787303,-376,-9,930,-2,-28,-4
787304,-389,16,917,16,-2,25
787305,-406,11,942,40,-9,63
787306,-398,23,935,63,-72,58
787307,-372,9,928,43,-86,45
787308,-369,16,926,25,-47,32
787309,-380,22,930,6,1,21
787310,-395,21,934,0,17,10
787311,-394,2,929,-4,7,8
787312,-394,9,931,19,-17,26
787313,-392,16,935,32,-39,40
787314,-382,17,935,33,-49,37
787315,-381,17,935,21,-37,28
787316,-386,10,939,14,-12,22
787317,-396,17,936,4,-3,18
787318,-390,16,924,0,-22,9
787319,-406,8,920,5,-49,12
787320,-384,11,930,14,-61,19
787321,-397,15,937,19,-51,25
787322,-380,25,936,11,-35,17
787323,-383,12,926,1,-15,16
787324,-384,13,927,3,-2,19
787325,-391,18,925,11,-8,30
787326,-384,16,928,18,-35,30
787327,-387,15,924,29,-55,32
787328,-387,19,933,18,-59,25
787329,-380,20,937,15,-56,11
787330,-384,16,931,9,-28,14
787331,-387,19,936,11,-11,21
787332,-382,11,931,18,-13,24
787333,-378,13,930,18,-18,26
787334,-388,15,932,25,-20,28
787335,-389,20,942,30,-17,28
787336,-393,16,930,25,-14,30
787337,-382,14,929,25,-16,30
787338,-388,20,933,20,-16,28
787339,-384,16,933,18,-17,23
787340,-387,12,931,16,-18,20
787341,-382,21,932,17,-12,22
787342,-391,23,938,15,-7,25
787343,-388,25,928,6,-11,20
787344,-394,12,925,4,-9,22
787345,-389,13,917,12,-13,25
787346,-386,21,929,21,-25,30
787347,-391,17,934,20,-44,29
787348,-383,17,941,16,-53,20
787349,-384,20,937,4,-50,16
787350,-388,18,937,0,-56,7
787351,-390,11,939,0,-47,11
787352,-385,15,937,-1,-35,19
787353,-384,16,928,7,-32,22
787354,-384,23,927,-4,-30,18
787355,-378,16,923,-4,-37,11
787356,-382,15,936,-2,-50,10
787357,-384,19,930,-7,-60,4
787358,-383,13,932,0,-67,3
787359,-383,12,929,1,-57,15
787360,-385,16,936,13,-55,21
787361,-381,22,934,13,-56,18
787362,-380,20,933,13,-51,16
787363,-381,20,929,12,-52,16
787364,-378,17,941,16,-55,19
787365,-386,18,931,15,-63,14
787366,-383,16,935,18,-59,14
787367,-378,19,933,12,-42,19
787368,-378,20,932,14,-30,21
787369,-387,23,933,9,-22,21
787370,-380,20,931,6,-18,22
787371,-383,15,937,9,-25,24
787372,-378,34,935,8,-41,15
787373,-386,14,942,4,-49,15
787374,-382,18,936,-2,-50,9
787375,-375,20,938,0,-40,10
787376,-382,24,941,-3,-30,9
787377,-382,23,935,-4,-25,10
787378,-381,20,933,-2,-27,8
787379,-378,16,932,1,-29,11
787380,-372,15,917,9,-34,16
787381,-387,13,920,29,-55,20
787382,-385,32,935,16,-82,15
787383,-373,6,938,14,-98,5
787384,-379,19,943,0,-104,-6
787385,-375,10,940,9,-85,5
787386,-372,14,936,18,-60,17
787387,-376,20,937,28,-46,28
787388,-366,8,917,56,-35,46
787389,-391,18,940,69,-42,56
787390,-389,38,947,30,-76,29
787391,-383,8,947,2,-91,9
787392,-379,6,949,-5,-62,4
787393,-372,24,949,4,-16,16
787394,-373,13,943,4,18,25
787395,-379,20,925,1,26,23
787396,-377,22,920,0,9,18
787397,-376,12,917,14,-12,21
787398,-382,28,935,15,-53,23
787399,-378,16,949,18,-105,15
787400,-369,24,943,2,-137,-14
787401,-360,11,920,-3,-110,-6
787402,-361,13,942,10,-46,13
787403,-382,26,955,11,-4,15
787404,-377,12,948,-1,16,11
787405,-372,12,936,4,20,18
787406,-375,26,934,16,14,30
787407,-377,16,923,12,3,28
787408,-372,23,928,2,-21,14
787409,-371,18,925,-2,-46,7
787410,-366,18,944,8,-55,10
787411,-372,18,952,10,-40,15
787412,-370,15,957,11,-17,20
787413,-369,19,935,11,1,23
787414,-375,20,929,11,11,25
787415,-372,20,920,11,2,25
787416,-381,32,960,5,-28,22
787417,-356,34,934,-35,-48,7
787418,-354,-8,933,-18,-13,-16
787419,-372,20,937,0,32,9
787420,-385,35,953,6,25,21
787421,-379,18,935,4,-21,14
787422,-371,9,921,15,-51,27
787423,-378,21,934,31,-58,38
787424,-374,26,951,18,-53,27
787425,-368,24,950,0,-37,11
787426,-368,16,939,-3,-11,13
787427,-378,21,942,6,-2,21
787428,-375,17,933,11,-7,25
787429,-374,16,932,18,-21,28
787430,-368,19,934,21,-28,28
787431,-368,21,940,16,-30,21
787432,-371,14,943,6,-23,15
787433,-377,16,938,3,-14,16
787434,-369,23,942,6,-7,20
787435,-374,20,934,8,-5,20
787436,-369,22,938,2,-3,18
787437,-373,17,939,3,-2,17
787438,-373,20,932,0,-6,14
787439,-375,21,932,0,-14,15
787440,-371,19,935,4,-19,17
787441,-376,18,939,12,-20,21
787442,-368,20,940,12,-19,23
787443,-371,15,930,14,-28,22
787444,-375,17,936,16,-30,21
787445,-373,17,940,21,-31,23
787446,-381,24,945,16,-24,25
787447,-375,21,936,16,-17,25
787448,-376,21,934,18,-10,30
787449,-371,25,937,14,-11,27
787450,-371,24,929,9,-18,20
787451,-374,19,935,7,-24,18
787452,-378,21,940,10,-28,20
787453,-379,19,945,13,-30,23
787454,-374,17,939,12,-30,23
787455,-369,22,936,13,-22,23
787456,-377,19,933,11,-14,21
787457,-375,24,941,7,-12,18
787458,-374,24,943,4,-11,17
787459,-374,20,939,7,-11,19
787460,-371,13,940,11,-8,23
787461,-378,25,938,12,-5,25
787462,-371,23,934,7,-4,20
787463,-370,21,939,4,-7,17
787464,-375,21,932,7,-11,17
787465,-377,24,935,7,-18,17
787466,-375,22,941,9,-18,19
787467,-375,16,942,4,-8,19
787468,-371,18,931,5,3,18
787469,-372,24,937,5,11,18
787470,-380,19,932,9,14,18
787471,-376,25,938,8,7,19
787472,-378,20,930,3,-7,18
787473,-371,23,931,0,-24,16
787474,-371,17,938,1,-30,14
787475,-379,22,944,5,-19,16
787476,-382,30,946,0,-11,16
787477,-373,21,925,-9,-22,5
787478,-376,14,934,2,-21,12
787479,-378,25,942,10,0,23
787480,-383,24,943,2,5,17
787481,-375,19,933,-22,7,13
787482,-374,13,933,4,-11,13
787483,-370,19,936,8,-4,24
787484,-381,26,946,23,-7,25
787485,-377,14,941,9,2,23
787486,-376,18,936,11,6,24
787487,-372,25,930,7,7,26
787488,-385,28,928,6,-5,23
787489,-375,16,938,-2,-21,14
787490,-378,19,926,-4,-28,12
787491,-375,15,943,4,-30,18
787492,-383,23,937,11,-32,21
787493,-371,13,940,7,-37,19
787494,-370,16,939,9,-39,19
787495,-377,24,931,8,-30,24
787496,-373,24,931,8,-27,21
787497,-379,20,934,8,-22,20
787498,-378,23,937,12,-21,23
787499,-375,26,935,11,-28,24
787500,-378,22,935,15,-36,25
787501,-371,24,935,15,-35,25
787502,-379,21,939,9,-29,20
787503,-378,22,935,2,-21,16
787504,-375,21,937,2,-14,14
787505,-378,20,938,6,-18,18
787506,-378,19,939,9,-24,23
787507,-370,24,937,6,-25,25
787508,-369,20,930,6,-30,22
787509,-369,20,934,4,-32,17
787510,-375,23,934,-2,-38,12
787511,-375,21,939,0,-53,10
787512,-369,19,949,6,-58,18
787513,-365,21,949,16,-47,23
787514,-360,19,942,17,-26,28
787515,-365,22,937,19,-3,30
787516,-375,31,936,16,6,28
787517,-376,26,929,16,0,22
787518,-375,16,927,14,-18,21
787519,-371,22,935,19,-39,22
787520,-378,27,937,23,-55,25
787521,-377,21,939,27,-65,24
787522,-369,24,947,21,-53,23
787523,-374,25,945,18,-38,24
787524,-371,21,940,9,-21,25
787525,-378,27,937,9,-16,23
787526,-376,26,931,10,-20,22
787527,-374,23,936,12,-30,23
787528,-371,26,937,7,-44,18
787529,-371,22,942,7,-46,17
787530,-370,23,941,11,-37,20
787531,-379,26,940,5,-29,18
787532,-365,25,937,-1,-21,16
787533,-368,22,934,-1,-16,16
787534,-370,23,930,1,-14,18
787535,-369,28,932,0,-21,16
787536,-370,19,933,0,-33,13
787537,-365,23,940,1,-39,14
787538,-370,32,938,0,-39,14
787539,-366,27,950,-2,-28,13
787540,-365,12,948,0,2,13
787541,-375,27,942,0,28,17
787542,-376,21,923,2,25,19
787543,-368,23,924,2,3,20
787544,-370,25,925,9,-23,21
787545,-367,24,933,11,-49,20
787546,-363,24,943,9,-55,16
787547,-364,23,950,4,-30,14
787548,-373,24,950,4,13,21
787549,-372,28,937,0,32,21
787550,-374,11,936,7,26,21
787551,-372,23,931,3,31,23
787552,-370,30,933,7,25,23
787553,-379,26,931,2,9,19
787554,-379,25,928,2,-14,18
787555,-376,25,922,1,-38,18
787556,-368,26,937,14,-57,18
787557,-370,19,950,8,-46,19
787558,-377,22,947,4,-31,16
787559,-374,16,940,-6,-16,13
787560,-376,30,941,1,-9,19
787561,-377,24,935,5,-8,25
787562,-378,26,931,2,-23,19
787563,-371,20,932,-6,-42,12
787564,-374,23,937,0,-51,12
787565,-378,24,942,3,-44,15
787566,-371,18,952,3,-31,16
787567,-370,22,938,1,-8,19
787568,-369,30,930,2,1,20
787569,-371,29,933,0,0,18
787570,-373,19,929,2,-12,14
787571,-370,21,934,11,-27,19
787572,-371,26,943,20,-37,24
787573,-369,22,944,17,-32,25
787574,-365,26,947,13,-14,23
787575,-373,20,940,14,0,24
787576,-374,17,933,18,0,27
787577,-373,23,929,19,-18,26
787578,-373,19,924,22,-39,28
787579,-371,21,936,27,-53,29
787580,-373,20,943,25,-42,28
787581,-376,24,949,23,-23,25
787582,-368,20,933,24,-4,29
787583,-378,23,933,32,0,34
787584,-368,23,923,37,-1,41
787585,-383,42,939,38,-21,43
787586,-382,36,936,0,-65,14
787587,-359,4,930,2,-84,2
787588,-365,18,948,33,-55,28
787589,-376,39,958,43,-26,43
787590,-377,28,939,23,-16,32
787591,-364,23,922,9,-18,24
787592,-369,25,928,22,-39,28
787593,-373,29,940,32,-67,25
787594,-374,23,941,33,-79,25
787595,-371,25,946,30,-79,23
787596,-369,25,944,25,-66,21
787597,-367,30,939,23,-46,23
787598,-365,26,942,25,-28,28
787599,-371,27,942,23,-17,29
787600,-371,34,943,18,-16,25
787601,-382,49,993,-15,-26,12
787602,-366,27,937,-74,-16,-17
787603,-345,-13,920,-27,35,-13
787604,-376,40,927,12,89,46
787605,-400,56,937,24,16,37
787606,-369,11,914,-4,-69,12
787607,-360,18,929,29,-104,27
787608,-369,42,954,37,-89,35
787609,-366,29,960,19,-59,17
787610,-359,15,958,4,3,14
787611,-370,34,948,11,51,28
787612,-374,36,933,4,53,25
787613,-367,22,910,7,14,21
787614,-370,28,916,18,-28,25
787615,-373,27,933,25,-62,25
787616,-379,28,943,20,-74,21
787617,-360,30,953,18,-57,22
787618,-359,27,953,11,-19,25
787619,-368,30,943,0,9,20
787620,-365,21,926,-3,13,18
787621,-372,26,928,5,-11,19
787622,-371,34,939,12,-47,22
787623,-364,34,941,11,-68,18
787624,-358,18,955,7,-51,16
787625,-370,27,957,5,-8,18
787626,-370,30,944,2,23,19
787627,-375,29,940,0,29,17
787628,-372,29,924,0,11,18
787629,-374,27,933,7,-15,19
787630,-371,28,931,8,-28,19
787631,-368,23,938,10,-29,18
787632,-365,28,937,7,-20,18
787633,-366,30,935,11,-9,22
787634,-376,33,936,11,-11,23
787635,-365,32,936,6,-28,19
787636,-366,26,935,7,-37,18
787637,-371,30,937,8,-32,19
787638,-362,33,946,3,-34,16
787639,-365,27,941,7,-42,12
787640,-364,27,945,11,-42,20
787641,-367,36,948,14,-35,24
787642,-363,26,944,10,-22,22
787643,-368,29,938,7,-7,21
787644,-373,28,937,2,0,18
787645,-372,22,935,0,-18,16
787646,-371,26,927,9,-49,18
787647,-367,26,933,20,-70,24
787648,-355,29,947,20,-72,24
787649,-365,27,950,17,-50,22
787650,-391,47,1009,-9,-25,14
787651,-349,23,928,-71,9,-18
787652,-357,-11,915,-14,60,-2
787653,-391,45,926,21,97,52
787654,-387,50,931,14,2,25
787655,-355,7,908,-20,-75,2
787656,-364,22,924,14,-97,18
787657,-379,43,960,15,-89,22
787658,-364,22,960,-9,-74,2
787659,-356,17,950,-14,-27,5
787660,-364,31,956,2,29,23
787661,-361,36,951,0,58,25
787662,-365,29,944,-7,65,19
787663,-381,32,934,-23,56,16
787664,-388,39,939,-33,17,9
787665,-361,24,943,-44,-30,-9
787666,-369,21,957,-53,-23,-6
787667,-372,31,965,-81,24,-14
787668,-377,32,967,-115,72,-30
787669,-377,34,958,-156,100,-56
787670,-374,16,938,-191,106,-88
787671,-368,-7,901,-202,95,-88
787672,-388,21,915,-185,62,-56
787673,-392,44,930,-192,-2,-60
787674,-380,28,932,-186,-73,-74
787675,-379,23,949,-240,-97,-116
787676,-371,5,954,-302,-57,-142
787677,-369,3,957,-333,-4,-151
787678,-375,-4,954,-311,39,-133
787679,-376,0,956,-293,51,-121
787680,-370,-1,935,-297,61,-119
787681,-365,1,921,-285,75,-118
787682,-385,-23,943,-257,64,-119
787683,-358,-8,920,-283,75,-120
787684,-376,-15,939,-244,88,-110
787685,-377,-20,949,-224,105,-98
787686,-386,-21,945,-195,122,-80
787687,-376,-22,934,-173,143,-58
787688,-386,-23,924,-169,170,-35
787689,-390,-16,931,-157,177,-25
787690,-385,-15,920,-157,168,-27
787691,-391,-12,918,-163,141,-39
787692,-371,-20,915,-180,130,-59
787693,-381,-36,916,-177,137,-68
787694,-391,-27,919,-172,154,-74
787695,-395,-35,915,-177,162,-62
787696,-392,-35,920,-158,170,-53
787697,-391,-40,920,-142,179,-42
787698,-400,-44,925,-130,177,-30
787699,-399,-38,920,-102,172,-25
787700,-409,-54,930,-77,170,-11
787701,-409,-42,922,-72,151,0
787702,-406,-41,912,-47,116,9
787703,-404,-40,911,-25,75,20
787704,-402,-35,922,-16,35,21
787705,-396,-27,918,-5,15,15
787706,-415,-46,944,13,6,24
787707,-404,-25,928,-42,-3,10
787708,-411,-37,935,-22,-16,4
787709,-404,-32,934,-44,-12,-9
787710,-400,-40,931,-65,11,-13
787711,-402,-39,933,-58,33,-11
787712,-410,-46,937,-81,53,-21
787713,-403,-22,941,-125,79,-35
787714,-402,-40,939,-145,123,-37
787715,-417,-42,949,-165,139,-71
787716,-398,-45,919,-231,205,-76
787717,-420,-51,931,-190,219,-82
787718,-429,-56,925,-164,214,-79
787719,-424,-60,911,-191,215,-59
787720,-420,-64,902,-149,180,-35
787721,-412,-67,897,-97,149,-14
787722,-411,-58,888,-92,140,11
787723,-417,-62,881,-72,111,21
787724,-431,-58,889,-48,56,18
787725,-423,-56,885,-33,-13,14
787726,-429,-64,887,-18,-81,14
787727,-421,-66,901,2,-128,21
787728,-420,-67,918,22,-143,30
787729,-416,-66,935,36,-121,47
787730,-419,-57,945,35,-83,61
787731,-418,-50,940,32,-47,62
787732,-410,-40,929,21,-11,56
787733,-419,-43,927,2,19,42
787734,-411,-49,913,-11,41,22
787735,-420,-54,904,-14,51,14
787736,-420,-55,898,-6,37,15
787737,-421,-63,894,16,0,24
787738,-423,-64,891,42,-53,39
787739,-415,-60,897,73,-103,53
787740,-409,-51,910,93,-121,64
787741,-408,-50,918,91,-111,66
787742,-415,-40,929,91,-98,58
787743,-421,-43,928,77,-88,54
787744,-417,-41,924,60,-80,46
787745,-413,-47,925,51,-71,37
787746,-413,-50,921,49,-58,31
787747,-407,-53,910,44,-38,30
787748,-410,-55,917,56,-23,37
787749,-424,-55,912,59,-25,51
787750,-419,-46,914,70,-51,60
787751,-414,-48,917,84,-84,62
787752,-409,-54,920,92,-102,62
787753,-406,-42,912,90,-91,67
787754,-420,-45,919,84,-71,67
787755,-404,-42,926,79,-58,60
787756,-410,-37,926,72,-52,49
787757,-406,-44,925,55,-51,43
787758,-409,-48,928,56,-53,42
787759,-406,-40,922,60,-60,43
787760,-404,-45,917,63,-57,49
787761,-406,-34,910,63,-49,52
787762,-406,-48,916,70,-51,53
787763,-420,-51,910,82,-56,72
787764,-411,-40,918,84,-86,81
787765,-390,-27,916,94,-115,77
787766,-400,-28,921,116,-130,70
787767,-407,-38,925,94,-137,56
787768,-399,-46,929,85,-130,51
787769,-397,-37,930,70,-85,52
787770,-410,-33,940,75,-42,60
787771,-407,-40,922,68,-15,67
787772,-411,-33,940,62,-15,75
787773,-381,-14,894,41,-28,56
787774,-413,-36,925,72,-47,40
787775,-396,-29,910,35,-55,33
787776,-400,-28,927,55,-73,31
787777,-400,-30,924,44,-66,37
787778,-413,-31,926,62,-66,42
787779,-405,-30,936,58,-65,44
787780,-397,-26,927,53,-56,43
787781,-398,-28,927,47,-45,39
787782,-403,-31,919,42,-35,36
787783,-403,-22,925,32,-30,32
787784,-405,-23,921,30,-30,30
787785,-406,-28,929,28,-34,25
787786,-412,-25,931,21,-31,25
787787,-401,-29,926,16,-25,25
787788,-405,-25,925,17,-19,26
787789,-402,-31,920,16,-24,25
787790,-399,-35,919,27,-28,30
787791,-404,-40,918,56,-21,50
787792,-411,-30,931,64,-30,65
787793,-389,-9,902,32,-36,61
787794,-416,-27,929,61,-48,48
787795,-395,-25,920,34,-52,35
787796,-403,-29,917,51,-60,40
787797,-387,-31,920,35,-49,41
787798,-422,-29,962,50,-18,57
787799,-411,-43,921,95,-25,88
787800,-409,2,934,93,-44,89
787801,-383,-7,914,51,-44,70
787802,-394,-26,916,65,-50,47
787803,-393,-18,892,14,-22,31
787804,-408,-20,926,41,-17,30
787805,-407,-18,932,35,-34,28
787806,-401,-22,930,42,-56,36
787807,-394,-30,928,48,-55,44
787808,-389,-25,920,49,-27,53
787809,-403,-21,925,57,-2,70
787810,-406,-12,926,86,-20,76
787811,-401,0,924,46,-38,56
787812,-390,-23,918,51,-59,39
787813,-387,-19,917,39,-51,35
787814,-390,-24,928,46,-34,35
787815,-404,-40,935,90,-39,62
787816,-410,-15,926,105,-72,84
787817,-400,-3,932,121,-113,91
787818,-390,-4,922,96,-121,79
787819,-385,-13,923,88,-109,63
787820,-388,-13,934,80,-79,52
787821,-400,-6,940,77,-58,45
787822,-399,-2,946,57,-50,41
787823,-395,-4,935,52,-58,40
787824,-392,-20,926,58,-58,44
787825,-388,-4,924,54,-51,44
787826,-396,-7,939,62,-45,45
787827,-392,-1,933,43,-36,39
787828,-396,-10,925,42,-29,37
787829,-400,-16,937,60,-23,51
787830,-436,-11,931,63,-25,79
787831,-387,15,906,1,-54,53
787832,-396,-13,921,51,-43,49
787833,-391,-12,924,39,-49,39
787834,-394,-6,924,44,-49,42
787835,-384,0,934,21,-46,31
787836,-395,-7,932,21,-44,21
787837,-387,-16,937,13,-41,25
787838,-399,-9,937,35,-45,35
787839,-391,0,933,18,-42,32
787840,-390,-3,935,16,-47,25
787841,-384,1,931,2,-37,23
787842,-387,0,923,1,-27,16
787843,-390,-8,932,4,-27,16
787844,-389,-3,932,9,-32,21
787845,-386,0,935,11,-35,24
787846,-391,0,933,3,-28,17
787847,-397,1,946,-11,-24,7
787848,-391,-5,936,-18,-20,7
787849,-380,-2,942,-18,-8,7
787850,-383,-11,931,-11,0,8
787851,-383,0,920,-8,2,13
787852,-380,-10,920,13,-5,22
787853,-392,2,921,9,-16,23
787854,-391,0,934,13,-44,18
787855,-393,-6,929,1,-62,14
787856,-385,-10,936,3,-57,14
787857,-392,0,942,8,-34,20
787858,-390,0,932,7,-14,19
787859,-386,-5,939,2,-9,18
787860,-390,-7,922,4,-12,19
787861,-387,0,926,11,-14,23
787862,-394,-3,919,14,-20,25
787863,-394,-4,928,13,-35,23
787864,-386,-4,937,11,-49,18
787865,-390,-10,932,11,-48,20
787866,-384,-2,937,13,-34,23
787867,-381,0,938,16,-13,26
787868,-390,2,935,11,2,25
787869,-388,2,930,4,5,20
787870,-386,-6,919,3,-2,16
787871,-387,0,923,10,-17,19
787872,-393,-2,930,16,-31,23
787873,-393,-5,931,14,-42,21
787874,-385,0,935,10,-38,19
787875,-392,-6,930,14,-20,23
787876,-395,0,932,19,-4,29
787877,-391,-1,927,16,-4,28
787878,-391,-2,930,12,-14,23
787879,-396,-5,930,13,-25,23
787880,-392,-4,935,14,-37,23
787881,-389,-6,936,16,-42,24
787882,-391,-6,935,20,-35,27
787883,-381,-2,931,18,-20,28
787884,-390,-1,930,14,-10,25
787885,-389,-4,929,11,-5,22
787886,-393,-5,925,16,-8,25
787887,-400,-7,926,27,-18,32
787888,-395,2,922,30,-35,33
787889,-385,0,934,32,-43,31
787890,-397,-9,943,31,-42,28
787891,-386,0,928,32,-37,30
787892,-393,-4,932,44,-27,42
787893,-387,0,927,58,-18,53
787894,-386,5,931,65,-22,55
787895,-382,3,924,55,-25,46
787896,-387,0,925,51,-25,41
787897,-386,-2,934,56,-22,44
787898,-399,2,937,66,-28,54
787899,-389,2,937,73,-53,60
787900,-398,4,940,67,-77,56
787901,-383,12,926,48,-87,42
787902,-386,9,930,43,-76,40
787903,-384,9,937,39,-64,38
787904,-389,14,948,23,-51,30
787905,-383,7,937,14,-60,5
787906,-390,-1,933,30,-59,30
787907,-382,1,932,47,-77,41
787908,-384,10,941,42,-77,38
787909,-381,11,941,28,-67,24
787910,-384,1,937,19,-56,14
787911,-385,7,930,12,-56,9
787912,-374,19,933,19,-58,21
787913,-382,7,937,25,-56,25
787914,-382,13,941,17,-38,25
787915,-383,8,949,8,-23,21
787916,-383,11,940,0,-4,16
787917,-383,5,935,0,11,18
787918,-384,2,931,7,12,24
787919,-389,12,932,7,-4,24
787920,-387,10,931,0,-26,18
787921,-383,1,934,-3,-33,12
787922,-377,5,939,-1,-26,15
787923,-368,7,920,9,-15,23
787924,-385,11,933,16,-10,27
787925,-386,10,924,15,-26,25
787926,-392,5,934,22,-50,24
787927,-386,5,940,23,-58,30
787928,-375,16,937,18,-54,28
787929,-379,4,937,16,-44,23
787930,-380,6,946,-1,-20,17
787931,-384,17,932,-11,-21,-1
787932,-380,1,927,3,-24,12
787933,-374,6,927,20,-33,25
787934,-377,12,934,19,-37,29
787935,-379,8,935,18,-29,23
787936,-385,0,938,19,-14,21
787937,-394,10,938,19,-11,27
787938,-390,5,933,25,-23,29
787939,-373,11,931,24,-25,30
787940,-378,18,932,25,-22,26
787941,-380,16,940,15,-18,19
787942,-384,6,935,7,-21,18
787943,-380,2,928,14,-27,21
787944,-381,12,933,19,-22,30
787945,-384,19,938,16,-18,25
787946,-382,3,928,4,-18,14
787947,-389,10,935,4,-23,11
787948,-377,10,941,9,-27,21
787949,-385,12,944,7,-20,22
787950,-379,3,927,7,-13,22
787951,-379,6,933,9,-16,23
787952,-379,12,926,4,-24,21
787953,-373,5,929,1,-30,14
787954,-380,11,935,0,-31,11
787955,-380,3,936,4,-37,14
787956,-385,1,941,11,-39,21
787957,-381,10,943,12,-35,24
787958,-379,12,940,10,-30,23
787959,-377,6,945,7,-18,21
787960,-374,8,929,9,0,25
787961,-386,9,932,18,9,28
787962,-387,16,930,12,-9,24
787963,-386,6,935,18,-42,22
787964,-371,8,934,19,-51,25
787965,-379,19,948,13,-35,20
787966,-378,15,955,4,-4,14
787967,-385,12,942,-6,18,14
787968,-380,7,924,6,18,21
787969,-384,14,929,7,2,24
787970,-380,11,922,11,-26,20
787971,-373,14,929,-4,-43,11
787972,-380,8,937,-3,-46,7
787973,-384,5,940,-13,-28,8
787974,-380,11,943,-7,-10,9
787975,-381,7,939,-2,7,16
787976,-378,7,925,1,9,23
787977,-369,11,915,-1,-4,17
787978,-388,12,925,10,-30,18
787979,-380,8,933,7,-61,19
787980,-382,3,940,18,-83,22
787981,-375,11,946,17,-70,28
787982,-375,18,943,13,-44,23
787983,-381,11,945,0,-22,15
787984,-377,8,941,-4,-9,11
787985,-383,12,933,2,-6,16
787986,-381,10,940,8,-7,23
787987,-384,11,928,9,-15,21
787988,-373,9,927,11,-24,21
787989,-378,8,935,12,-34,22
787990,-376,11,937,9,-38,20
787991,-373,1,934,7,-32,18
787992,-381,3,937,9,-20,20
787993,-382,16,941,5,-11,20
787994,-382,12,930,0,-10,14
787995,-368,8,931,4,-12,19
787996,-384,13,938,14,-18,25
787997,-383,11,939,5,-27,18
787998,-374,9,938,3,-32,14
787999,-374,7,937,7,-25,19
788000,-384,2,943,19,-14,23
788001,-388,1,945,39,-11,35
788002,-374,25,938,-3,-23,28
788003,-353,11,905,0,-18,23
788004,-393,-1,935,27,-22,24
788005,-379,23,932,5,-28,31
788006,-390,14,949,2,-49,11
788007,-360,-2,925,-21,-25,6
788008,-386,1,944,8,-7,15
788009,-386,17,941,16,-1,28
788010,-384,7,939,11,-20,25
788011,-362,2,921,15,-30,26
788012,-382,6,930,29,-25,35
788013,-380,24,932,13,-29,25
788014,-384,4,924,13,-39,19
788015,-382,8,930,14,-36,25
788016,-384,15,933,11,-28,24
788017,-376,5,941,0,-9,14
788018,-374,10,941,4,2,9
788019,-387,14,947,10,0,19
788020,-380,12,937,11,-22,26
788021,-373,13,930,9,-33,23
788022,-369,13,935,10,-19,21
788023,-378,12,945,7,-9,18
788024,-383,6,938,0,-17,14
788025,-380,9,929,6,-34,18
788026,-376,13,930,7,-38,23
788027,-376,20,938,4,-37,18
788028,-376,8,937,0,-25,16
788029,-377,12,932,0,-13,16
788030,-377,12,933,0,-6,16
788031,-382,19,931,-2,-12,15
788032,-380,8,930,0,-23,14
788033,-373,9,930,7,-32,19
788034,-376,16,935,11,-37,22
788035,-378,12,942,12,-35,22
788036,-377,9,946,13,-21,24
788037,-382,17,933,11,-9,23
788038,-378,11,935,7,-7,21
788039,-384,10,933,7,-14,20
788040,-383,7,930,8,-21,20
788041,-376,18,938,7,-25,20
788042,-372,8,934,8,-26,21
788043,-373,12,928,14,-25,24
788044,-378,15,935,16,-23,27
788045,-375,14,934,12,-25,23
788046,-374,11,929,11,-23,22
788047,-377,15,940,11,-23,21
788048,-378,13,941,8,-28,18
788049,-376,14,938,9,-30,20
788050,-373,7,937,13,-23,23
788051,-377,19,937,11,-17,21
788052,-377,14,932,5,-12,18
788053,-377,9,928,7,-11,19
788054,-378,12,932,12,-13,22
788055,-374,14,934,11,-23,21
788056,-372,12,935,10,-32,19
788057,-374,12,943,12,-28,21
788058,-379,14,943,9,-18,21
788059,-379,15,934,6,-11,20
788060,-376,13,935,9,-5,21
788061,-382,11,926,15,-7,24
788062,-379,15,929,13,-22,22
788063,-383,14,937,12,-35,21
788064,-377,14,936,7,-34,19
788065,-382,11,938,7,-24,17
788066,-373,13,942,4,-13,17
788067,-382,13,939,4,-11,20
788068,-382,15,934,6,-21,21
788069,-376,11,936,7,-26,22
788070,-374,14,935,6,-22,21
788071,-377,17,935,0,-10,16
788072,-381,14,944,-10,-7,7
788073,-379,12,930,-7,-8,9
788074,-380,6,938,11,-14,21
788075,-387,14,937,18,-27,29
788076,-378,12,933,14,-39,25
788077,-371,19,934,9,-39,21
788078,-382,11,935,9,-28,19
788079,-374,11,943,6,-17,17
788080,-377,23,938,2,-9,17
788081,-381,7,938,2,-11,16
788082,-380,14,935,4,-23,17
788083,-384,10,938,6,-34,19
788084,-374,14,938,4,-36,14
788085,-371,13,936,2,-27,12
788086,-379,15,936,1,-12,13
788087,-381,15,940,0,-8,14
788088,-377,12,931,5,-16,16
788089,-374,9,925,23,-21,25
788090,-385,21,934,18,-25,27
788091,-383,16,936,2,-37,12
788092,-373,11,939,-8,-33,7
788093,-365,12,940,2,-11,15
788094,-381,16,943,7,1,19
788095,-373,11,937,4,0,17
788096,-382,11,931,0,-7,15
788097,-375,13,934,7,-14,17
788098,-369,22,940,5,-21,14
788099,-383,11,944,4,-29,10
788100,-377,11,937,1,-21,10
788101,-381,8,944,0,-5,9
788102,-384,12,937,2,3,9
788103,-380,11,952,-2,3,7
788104,-366,17,932,-11,4,7
788105,-370,7,928,-3,0,4
788106,-364,14,935,17,14,14
788107,-375,14,936,7,15,14
788108,-391,22,934,2,0,15
788109,-367,18,923,-30,-26,-3
788110,-378,10,943,-25,-39,-9
788111,-379,14,938,-28,-22,0
788112,-389,27,956,-70,-19,-18
788113,-377,-1,933,-71,-13,-18
788114,-375,16,919,-95,4,-23
788115,-374,4,937,-60,22,-14
788116,-392,19,940,-94,28,-17
788117,-368,7,930,-92,15,-29
788118,-367,-26,915,-62,30,-9
788119,-386,3,926,-19,34,19
788120,-395,24,940,-6,2,29
788121,-384,13,938,-22,-37,6
788122,-365,-10,926,-32,-25,-4
788123,-373,-2,926,-27,18,2
788124,-392,-7,919,-2,42,25
788125,-401,12,933,23,14,44
788126,-391,21,937,17,-36,37
# samples=1165
# gaps=1
