# falldetect-gkl fd_studio v1
# label=walking
# mount=neck
# subject=s01
# started=2026-09-20T19:01:21
# units=accel milli-g, gyro deci-dps
# firmware=unknown
# notes=
seq,ax,ay,az,gx,gy,gz
788432,-383,21,950,-84,-46,-41
788433,-359,6,949,-114,-51,-56
788434,-365,2,962,-133,32,-52
788435,-378,5,972,-155,126,-51
788436,-380,-9,955,-200,198,-54
788437,-370,-9,935,-169,246,-30
788438,-396,-1,934,-109,228,2
788439,-390,2,908,-102,163,21
788440,-386,6,904,-70,81,27
788441,-375,4,897,-49,21,16
788442,-375,0,916,-39,-9,14
788443,-373,15,936,-72,-12,-8
788444,-367,12,943,-118,39,-30
788445,-381,-1,958,-144,98,-68
788446,-372,0,948,-190,179,-83
788447,-376,-9,937,-184,245,-70
788448,-386,-12,949,-147,281,-34
788449,-394,-7,907,-120,313,68
788450,-419,-17,968,-77,327,57
788451,-403,6,924,-143,318,11
788452,-386,5,916,-151,310,-2
788453,-353,21,954,-138,290,3
788454,-432,-27,913,-191,315,53
788455,-410,-17,923,-144,354,-30
788456,-432,-16,905,-142,336,0
788457,-479,-20,887,-152,248,41
788458,-435,0,903,-113,130,-50
788459,-422,-30,874,-78,58,-81
788460,-430,-34,887,-107,31,-85
788461,-426,-37,872,-101,28,-61
788462,-439,-35,915,-5,-28,-36
788463,-431,-25,914,4,-83,-3
788464,-416,-20,904,46,-153,5
788465,-417,-21,934,60,-176,-2
788466,-399,-15,918,33,-138,-14
788467,-413,-3,931,9,-91,-31
788468,-430,-18,938,-1,-70,-42
788469,-409,-21,926,-37,-61,-51
788470,-397,-40,913,-28,-30,-30
788471,-420,-20,952,-46,21,-14
788472,-400,-19,930,-37,54,-7
788473,-424,-16,947,-34,67,-12
788474,-407,-27,921,-38,60,-18
788475,-411,-19,914,-59,66,-23
788476,-415,-32,909,-49,74,-18
788477,-422,-19,916,-38,67,-21
788478,-431,-3,910,-54,53,-38
788479,-423,-37,934,-9,28,-55
788480,-422,-23,921,-112,70,-60
788481,-424,-47,919,-60,73,-38
788482,-427,-36,917,-51,59,-22
788483,-413,-40,897,-31,53,-6
788484,-421,-46,916,2,49,12
788485,-420,-32,912,26,42,31
788486,-424,-27,907,35,31,42
788487,-425,-35,922,42,15,42
788488,-422,-32,906,35,8,33
788489,-416,-33,900,38,6,32
788490,-427,-35,914,54,6,49
788491,-423,-19,913,67,3,55
788492,-426,-20,930,68,-6,54
788493,-417,-20,919,49,-4,43
788494,-426,-24,922,47,-8,35
788495,-416,-16,913,33,-9,26
788496,-412,-20,914,37,0,15
788497,-422,-40,928,35,25,24
788498,-423,-24,916,43,50,37
788499,-433,-29,916,58,55,50
788500,-424,-21,898,53,45,52
788501,-424,-20,901,54,27,45
788502,-424,-22,895,56,11,43
788503,-431,-23,899,54,-3,44
788504,-431,-33,921,75,-17,52
788505,-430,-21,922,80,-31,56
788506,-427,-18,926,80,-36,58
788507,-431,-17,931,75,-32,58
788508,-423,-19,919,73,-20,53
788509,-419,-22,919,84,7,58
788510,-426,-22,920,83,33,64
788511,-423,-9,927,70,36,58
788512,-421,-12,911,60,27,49
788513,-424,-17,901,62,18,51
788514,-428,-16,907,70,8,53
788515,-426,-20,901,85,0,65
788516,-431,-15,901,88,-16,71
788517,-420,-17,901,93,-36,70
788518,-421,-22,907,100,-53,69
788519,-421,-11,906,110,-56,79
788520,-424,-9,914,120,-58,90
788521,-426,-4,914,120,-67,86
788522,-431,-9,920,121,-65,80
788523,-427,-2,923,105,-50,81
788524,-426,-1,925,101,-33,82
788525,-424,0,923,88,-14,70
788526,-438,6,935,70,10,63
788527,-429,-1,916,46,17,53
788528,-430,-1,915,46,19,47
788529,-425,-7,907,49,17,46
788530,-427,-7,911,54,18,49
788531,-421,0,904,60,19,53
788532,-423,-5,908,70,16,54
788533,-423,-4,910,77,6,60
788534,-431,-11,905,89,-4,71
788535,-430,0,906,100,-18,86
788536,-431,10,914,107,-49,82
788537,-427,17,909,93,-58,75
788538,-426,5,921,84,-59,62
788539,-426,2,922,74,-42,58
788540,-429,0,923,78,-23,60
788541,-426,8,920,74,-11,59
788542,-421,10,914,70,-9,58
788543,-421,9,911,69,-13,59
788544,-426,9,913,78,-21,65
788545,-422,7,915,77,-34,60
788546,-434,14,916,79,-36,57
788547,-425,15,925,67,-23,51
788548,-429,12,926,56,-7,44
788549,-427,11,916,51,2,42
788550,-427,6,913,64,8,49
788551,-424,3,901,65,4,53
788552,-434,3,913,89,-6,70
788553,-429,15,907,93,-33,85
788554,-425,28,923,99,-62,77
788555,-418,27,922,74,-63,56
788556,-418,14,922,51,-42,42
788557,-430,20,914,34,-23,32
788558,-428,14,917,27,-18,28
788559,-418,16,919,35,-16,33
788560,-420,16,909,44,-15,38
788561,-423,12,908,47,-8,39
788562,-425,21,914,47,-13,41
788563,-426,22,908,50,-30,43
788564,-424,18,913,53,-49,44
788565,-420,13,914,61,-58,46
788566,-419,20,920,60,-55,52
788567,-426,25,933,57,-49,51
788568,-425,24,921,49,-38,43
788569,-424,18,922,37,-23,39
788570,-427,26,916,46,-11,44
788571,-426,27,913,37,-5,44
788572,-425,22,913,26,-2,34
788573,-429,24,906,9,-9,23
788574,-428,20,919,7,-25,16
788575,-424,20,915,7,-40,18
788576,-426,25,905,4,-47,22
788577,-426,18,924,2,-47,19
788578,-423,30,916,-7,-44,10
788579,-423,13,916,-6,-42,11
788580,-416,21,904,-2,-29,20
788581,-417,10,937,25,-16,30
788582,-415,39,908,17,-10,32
788583,-428,29,906,14,-42,25
788584,-422,12,903,29,-63,25
788585,-420,27,905,26,-72,32
788586,-429,17,912,40,-83,37
788587,-423,20,910,37,-91,36
788588,-421,20,923,41,-94,36
788589,-424,23,917,38,-99,42
788590,-423,25,917,37,-104,41
788591,-418,24,920,35,-107,35
788592,-414,29,917,32,-99,33
788593,-416,25,928,39,-84,38
788594,-421,31,924,39,-70,41
788595,-420,31,926,36,-62,38
788596,-417,28,919,29,-53,34
788597,-410,31,927,27,-47,32
788598,-418,33,919,27,-47,32
788599,-422,35,917,16,-53,26
788600,-425,31,917,0,-65,17
788601,-419,35,913,-16,-74,7
788602,-422,29,925,-25,-78,4
788603,-415,25,922,-29,-83,2
788604,-411,18,925,-26,-73,3
788605,-416,28,929,-23,-55,6
788606,-422,29,932,-27,-37,4
788607,-413,26,918,-35,-28,1
788608,-407,21,905,-23,-19,2
788609,-420,7,920,10,-21,24
788610,-414,23,916,25,-39,32
788611,-411,32,918,15,-49,29
788612,-409,19,920,6,-49,21
788613,-418,17,922,9,-42,19
788614,-413,20,932,14,-41,25
788615,-413,26,932,21,-40,30
788616,-408,34,929,13,-39,27
788617,-407,32,918,0,-29,20
788618,-415,20,917,-7,-21,15
788619,-412,20,923,-7,-34,16
788620,-414,18,921,11,-58,23
788621,-408,26,939,2,-79,29
788622,-409,39,919,-16,-84,23
788623,-413,21,926,-11,-79,14
788624,-409,20,914,-7,-71,11
788625,-414,22,935,7,-60,23
788626,-407,37,930,8,-52,25
788627,-406,27,921,-4,-39,18
788628,-408,27,916,-14,-25,9
788629,-420,20,920,-9,-30,10
788630,-414,23,925,-7,-46,14
788631,-410,32,925,-6,-51,12
788632,-406,21,924,-11,-40,9
788633,-408,20,928,-15,-32,7
788634,-409,17,920,-16,-28,10
788635,-402,26,920,-25,-25,7
788636,-405,23,921,-36,-22,0
788637,-404,26,914,-51,-21,-8
788638,-411,16,918,-39,-35,-7
788639,-419,18,919,-19,-53,3
788640,-413,17,924,-13,-77,12
788641,-404,24,926,-18,-95,12
788642,-400,25,915,-72,-111,-4
788643,-405,31,900,-116,-128,-25
788644,-401,4,926,-76,-115,-22
788645,-407,9,933,-32,-102,0
788646,-412,19,952,-27,-105,11
788647,-403,15,932,-52,-119,10
788648,-383,18,923,-52,-97,5
788649,-401,12,925,-39,-62,9
788650,-411,23,939,-25,-28,9
788651,-405,18,930,-27,-20,4
788652,-402,9,920,-25,-16,4
788653,-406,16,920,-16,-18,12
788654,-403,18,920,-23,-29,9
788655,-403,11,923,-25,-41,5
788656,-400,20,928,-28,-42,4
788657,-409,15,937,-33,-38,2
788658,-408,14,935,-32,-35,3
788659,-398,11,922,-37,-44,5
788660,-392,7,919,-34,-53,9
788661,-388,13,917,-34,-53,12
788662,-399,20,916,-20,-44,13
788663,-398,14,917,-15,-44,9
788664,-394,11,918,-11,-52,9
788665,-394,8,922,0,-62,16
788666,-397,12,931,11,-68,23
788667,-396,15,933,11,-75,28
788668,-399,18,931,19,-80,32
788669,-415,13,911,7,-93,34
788670,-396,9,933,21,-88,32
788671,-392,12,929,23,-84,31
788672,-399,12,938,23,-77,33
788673,-397,19,927,22,-72,32
788674,-389,10,922,21,-70,31
788675,-392,8,924,34,-71,35
788676,-388,16,918,37,-77,38
788677,-398,20,933,32,-91,35
788678,-400,19,929,29,-103,34
788679,-396,11,930,32,-112,36
788680,-385,17,925,32,-120,35
788681,-383,5,935,35,-119,38
788682,-390,16,929,32,-118,42
788683,-388,12,931,48,-108,46
788684,-390,25,936,44,-110,46
788685,-392,23,935,26,-133,49
788686,-371,14,948,12,-142,42
788687,-362,20,954,-2,-134,44
788688,-401,20,936,-16,-118,58
788689,-388,31,961,-65,-81,23
788690,-365,-5,919,-63,-54,35
788691,-385,12,906,-24,-39,85
788692,-370,9,917,16,-72,109
788693,-376,11,898,41,-164,125
788694,-413,17,879,41,-257,131
788695,-407,41,948,56,-259,70
788696,-396,15,962,30,-303,28
788697,-367,4,958,18,-310,28
788698,-352,15,960,47,-254,52
788699,-364,26,956,60,-180,72
788700,-358,28,955,61,-114,65
788701,-371,27,927,33,-60,57
788702,-372,24,937,29,-39,55
788703,-380,20,938,31,-58,56
788704,-371,25,939,33,-89,56
788705,-370,27,928,37,-113,58
788706,-365,20,936,32,-141,61
788707,-363,31,935,16,-175,56
788708,-367,20,931,14,-210,54
788709,-364,19,941,14,-223,57
788710,-361,13,934,27,-236,64
788711,-345,16,940,40,-252,68
788712,-341,22,954,61,-238,77
788713,-337,29,952,49,-202,85
788714,-352,34,945,39,-166,76
788715,-355,34,953,47,-144,61
788716,-360,22,935,51,-173,59
788717,-351,18,949,63,-190,60
788718,-346,31,950,64,-172,50
788719,-352,34,962,53,-149,38
788720,-353,31,959,7,-151,21
788721,-346,27,959,-2,-156,13
788722,-340,30,958,19,-142,18
788723,-342,30,953,12,-131,22
788724,-333,28,947,15,-130,24
788725,-339,22,946,32,-131,33
788726,-344,20,947,44,-131,43
788727,-337,31,950,58,-130,56
788728,-327,37,961,70,-121,60
788729,-337,41,951,65,-108,63
788730,-341,32,955,40,-88,51
788731,-340,29,951,36,-79,52
788732,-332,28,940,31,-83,49
788733,-336,40,947,60,-74,53
788734,-327,26,961,53,-79,48
788735,-342,22,927,37,-95,63
788736,-325,32,965,69,-78,60
788737,-298,31,942,74,-69,64
788738,-338,29,921,122,-53,92
788739,-343,53,945,159,-37,102
788740,-349,42,947,151,-86,91
788741,-336,41,940,140,-154,74
788742,-324,42,950,149,-180,76
788743,-327,40,961,138,-156,74
788744,-328,55,975,121,-119,63
788745,-329,52,977,110,-92,60
788746,-324,48,974,96,-56,51
788747,-330,44,963,88,-28,53
788748,-316,43,935,99,-10,56
788749,-289,36,940,106,-39,101
788750,-339,50,897,104,-47,141
788751,-345,60,976,151,-22,119
788752,-363,62,949,122,-77,95
788753,-340,55,954,114,-135,72
788754,-317,58,957,114,-168,56
788755,-324,81,1066,25,-172,43
788756,-301,48,919,8,-114,18
788757,-313,28,977,59,-9,43
788758,-328,65,956,56,22,58
788759,-318,59,935,49,-13,46
788760,-312,49,931,97,-49,58
788761,-318,51,943,112,-72,66
788762,-321,52,962,130,-76,74
788763,-314,74,978,112,-54,76
788764,-321,57,973,86,-23,70
788765,-310,62,966,91,9,72
788766,-288,80,995,69,17,87
788767,-329,60,955,4,-17,103
788768,-323,59,947,-1,5,86
788769,-337,44,940,38,32,84
788770,-333,52,949,40,49,80
788771,-331,73,960,59,44,70
788772,-326,58,961,53,45,61
788773,-323,64,949,58,47,70
788774,-318,59,955,68,60,75
788775,-305,78,972,67,65,80
788776,-324,51,966,66,73,98
788777,-336,68,950,47,97,93
788778,-322,79,945,51,106,76
788779,-320,79,951,52,93,76
788780,-334,64,954,20,71,85
788781,-316,64,964,20,63,87
788782,-355,56,955,15,66,87
788783,-319,84,944,11,69,81
788784,-334,55,966,2,52,82
788785,-349,54,962,-35,42,84
788786,-296,89,976,-53,50,79
788787,-332,74,960,-49,91,52
788788,-326,65,939,-52,134,35
788789,-329,60,946,-32,142,55
788790,-349,67,928,-46,112,60
788791,-312,85,954,-48,65,37
788792,-345,65,938,-68,1,37
788793,-312,69,963,-106,-34,27
788794,-365,65,956,-123,-44,11
788795,-339,71,979,-144,-30,-23
788796,-342,64,980,-172,-10,-49
788797,-323,61,975,-202,38,-62
788798,-315,53,965,-210,116,-61
788799,-333,52,976,-225,191,-44
788800,-355,59,967,-256,214,-39
788801,-353,60,943,-287,210,-52
788802,-339,51,931,-283,214,-62
788803,-334,40,927,-260,210,-49
788804,-386,31,1000,-269,196,-44
788805,-384,148,1017,-515,151,-173
788806,-398,12,954,-433,151,-165
788807,-250,22,932,-364,268,-168
788808,-307,-18,852,-252,402,-79
788809,-357,29,871,-182,413,-17
788810,-436,58,850,-174,253,-23
788811,-400,22,891,-150,7,-51
788812,-357,-4,897,-94,-172,-45
788813,-341,7,943,-33,-206,-16
788814,-350,44,975,-27,-158,-8
788815,-354,41,979,-69,-85,-26
788816,-358,20,971,-109,-2,-42
788817,-344,15,950,-114,69,-38
788818,-355,15,937,-86,116,-18
788819,-365,33,912,-79,105,-9
788820,-366,16,912,-74,48,-11
788821,-351,17,906,-53,-21,-8
788822,-357,8,932,-13,-74,5
788823,-371,24,948,-2,-111,13
788824,-552,16,1087,-169,-121,-130
788825,-230,61,872,-198,-286,-163
788826,-254,-52,944,-25,-123,-60
788827,-338,25,909,-23,46,27
788828,-406,47,980,-47,89,9
788829,-405,21,963,-96,0,-33
788830,-382,4,975,-147,-93,-66
788831,-321,10,950,-134,-109,-147
788832,-319,-15,874,-121,-79,-50
788833,-347,7,944,-68,8,-3
788834,-384,26,961,-95,24,-35
788835,-372,9,942,-112,-35,-51
788836,-363,-10,942,-104,-86,-53
788837,-364,-14,936,-93,-100,-88
788838,-351,-5,916,-92,-126,-69
788839,-346,4,937,-71,-112,-56
788840,-345,21,940,-66,-108,-42
788841,-365,10,949,-48,-116,-13
788842,-362,-16,954,-63,-122,-33
788843,-343,0,940,-59,-118,-35
788844,-346,2,953,-39,-91,-21
788845,-350,-12,935,-49,-73,-16
788846,-356,3,951,-28,-70,-6
788847,-356,-2,940,-9,-81,6
788848,-344,-8,952,-15,-86,-2
788849,-344,1,935,-23,-83,0
788850,-345,-2,948,-3,-68,7
788851,-353,-2,950,-2,-59,12
788852,-345,-1,951,-4,-57,9
788853,-353,-2,950,1,-60,14
788854,-341,-3,945,-1,-60,15
788855,-351,-2,948,-1,-58,14
788856,-348,-4,939,5,-55,14
788857,-350,-7,943,-4,-63,18
788858,-350,-2,944,-2,-87,16
788859,-342,-3,933,16,-123,23
788860,-340,-12,938,13,-144,13
788861,-326,-4,928,46,-147,38
788862,-345,-3,950,65,-135,54
788863,-342,13,965,74,-125,55
788864,-336,-4,946,62,-125,51
788865,-338,-1,942,61,-121,57
788866,-343,-1,952,75,-112,59
788867,-336,7,955,65,-123,57
788868,-333,-5,946,62,-137,51
788869,-335,-4,953,66,-149,54
788870,-338,4,953,63,-148,54
788871,-334,1,962,56,-140,46
788872,-332,3,967,39,-128,35
788873,-330,0,977,28,-112,29
788874,-330,3,954,19,-91,30
788875,-328,6,955,12,-75,28
788876,-333,0,951,5,-68,26
788877,-331,-5,946,4,-76,24
788878,-329,1,949,7,-87,22
788879,-330,8,945,-2,-107,16
788880,-333,1,951,3,-117,21
788881,-325,-2,966,2,-117,20
788882,-327,-1,954,-4,-114,18
788883,-307,16,955,0,-95,11
788884,-321,4,960,14,-71,23
788885,-444,-37,1129,-69,-72,-4
788886,-194,74,883,-180,-116,-184
788887,-330,-43,872,22,-87,14
788888,-342,13,956,43,-59,59
788889,-364,2,978,-33,-108,0
788890,-320,-24,964,31,-160,22
788891,-314,20,948,11,-163,36
788892,-300,21,965,-36,-116,4
788893,-321,-16,977,-11,-63,4
788894,-317,-2,935,-11,-47,16
788895,-311,24,992,-63,-45,-7
788896,-326,-27,953,-17,-54,-2
788897,-318,4,939,-38,-88,5
788898,-309,-4,982,-32,-76,-9
788899,-322,-8,955,-45,-78,-23
788900,-321,-1,970,-58,-72,-25
788901,-314,-13,963,-58,-78,-45
788902,-329,-10,948,-72,-91,-51
788903,-291,5,929,-29,-104,-26
788904,-309,-3,951,4,-93,0
788905,-317,-3,966,7,-91,8
788906,-317,-12,967,13,-88,7
788907,-307,-10,960,-6,-83,-9
788908,-313,-3,960,-16,-79,-22
788909,-316,-3,935,18,-88,9
788910,-307,0,957,28,-87,19
788911,-308,-7,955,36,-88,23
788912,-307,-4,964,48,-85,32
788913,-308,-6,962,66,-72,42
788914,-323,-8,973,56,-65,41
788915,-309,2,974,31,-66,29
788916,-307,-13,953,50,-54,36
788917,-298,14,946,16,-49,31
788918,-290,-11,951,45,-30,29
788919,-318,0,951,57,-32,38
788920,-309,-3,950,58,-53,37
788921,-304,2,953,59,-79,37
788922,-298,2,940,76,-89,42
788923,-299,2,946,86,-88,45
788924,-306,-4,954,103,-92,49
788925,-305,-1,965,116,-109,53
788926,-304,1,961,118,-126,56
788927,-303,6,971,121,-124,56
788928,-299,4,980,123,-110,57
788929,-295,4,981,121,-77,59
788930,-302,9,978,112,-47,59
788931,-305,8,965,102,-36,58
788932,-303,8,969,100,-38,54
788933,-307,11,955,93,-49,54
788934,-301,10,962,89,-57,53
788935,-305,5,977,87,-56,50
788936,-305,8,964,70,-52,48
788937,-301,9,970,73,-46,48
788938,-304,17,960,66,-42,46
788939,-296,12,965,63,-42,44
788940,-302,15,955,68,-44,47
788941,-297,10,965,81,-43,53
788942,-303,14,963,82,-44,54
788943,-299,16,968,84,-51,58
788944,-294,16,965,82,-54,55
788945,-294,17,969,88,-44,53
788946,-300,18,970,86,-35,58
788947,-302,17,972,78,-34,62
788948,-296,25,969,71,-39,56
788949,-298,23,960,59,-41,53
788950,-294,15,967,56,-39,51
788951,-300,18,961,56,-45,56
788952,-302,24,959,56,-56,58
788953,-292,21,958,56,-63,53
788954,-295,21,957,64,-63,51
788955,-297,31,971,67,-68,51
788956,-288,23,970,63,-74,50
788957,-290,22,968,49,-74,53
788958,-296,27,961,43,-65,51
788959,-296,21,964,46,-59,46
788960,-299,28,967,46,-68,44
788961,-289,24,973,42,-81,41
788962,-296,25,969,35,-77,37
788963,-290,23,980,35,-58,32
788964,-295,28,973,23,-44,31
788965,-293,25,976,20,-30,28
788966,-294,33,975,8,-21,24
788967,-292,27,968,-1,-10,18
788968,-289,27,973,-4,-7,16
788969,-292,26,964,-7,-11,16
788970,-293,32,971,-8,-16,13
788971,-289,29,962,-9,-16,11
788972,-289,29,954,0,-11,13
788973,-293,26,965,10,-11,14
788974,-294,26,963,14,-22,15
788975,-295,25,966,11,-37,19
788976,-288,25,969,28,-37,18
788977,-288,23,976,21,-42,20
788978,-295,20,963,16,-43,22
788979,-286,22,967,23,-36,25
788980,-288,33,968,21,-30,25
788981,-293,24,960,25,-30,21
788982,-289,28,949,32,-36,20
788983,-279,24,973,40,-51,21
788984,-292,35,954,28,-65,25
788985,-291,32,974,42,-49,16
788986,-288,31,978,21,-42,17
788987,-286,38,971,7,-25,16
788988,-283,23,979,4,0,14
788989,-292,29,954,-1,-1,16
788990,-287,31,963,2,-8,16
788991,-296,30,961,3,-15,12
788992,-291,26,967,3,-17,13
788993,-294,33,951,3,-25,12
788994,-287,19,961,25,-39,8
788995,-280,27,970,28,-55,11
788996,-291,32,976,23,-46,12
788997,-280,29,979,32,-25,7
788998,-288,33,958,13,-21,11
788999,-290,33,977,14,-14,11
789000,-295,29,962,7,-18,11
789001,-289,32,958,14,-17,10
789002,-288,33,962,27,-18,5
789003,-292,32,962,9,-44,11
789004,-284,32,975,14,-37,7
789005,-289,24,977,6,-23,4
789006,-291,28,969,5,-16,7
789007,-288,31,970,16,-16,1
789008,-285,18,969,0,-34,4
789009,-290,35,967,4,-37,6
789010,-282,29,977,-3,-27,5
789011,-294,34,976,-12,-6,2
789012,-286,31,985,-22,7,-3
789013,-287,26,976,-37,11,-8
789014,-292,31,955,-31,16,-7
789015,-284,21,965,-23,18,-2
789016,-292,25,957,-18,7,1
789017,-294,27,946,-1,-12,7
789018,-286,29,964,13,-29,4
789019,-292,28,967,16,-38,0
789020,-288,28,967,6,-51,-16
789021,-291,24,967,7,-46,-14
789022,-292,29,984,4,-29,-7
789023,-295,31,974,-5,-18,-11
789024,-283,27,978,-23,-4,-15
789025,-295,23,964,-36,7,-18
789026,-288,27,967,-31,13,-52
789027,-299,29,946,-34,17,-39
789028,-290,27,968,3,14,-30
789029,-282,28,961,-13,-16,-21
789030,-283,23,967,-13,-21,-16
789031,-292,27,962,-21,-21,-13
789032,-292,18,971,-7,-16,-13
789033,-290,26,969,7,-15,-15
789034,-294,11,959,2,-24,-25
789035,-285,25,960,26,-23,-42
789036,-291,24,950,35,-39,-28
789037,-295,24,958,36,-62,-21
789038,-287,15,974,35,-70,-23
789039,-285,13,965,37,-53,-29
789040,-284,27,968,49,-36,-37
789041,-282,28,978,40,-49,-18
789042,-294,26,975,24,-58,-16
789043,-224,45,959,2,-61,-46
789044,-263,9,944,36,-8,-11
789045,-322,39,971,42,-4,33
789046,-297,23,992,25,-54,25
789047,-268,28,966,23,-66,30
789048,-284,27,986,11,-14,25
789049,-306,30,999,-11,0,15
789050,-293,30,990,-39,-5,3
789051,-274,17,957,-49,28,-1
789052,-283,22,951,-37,64,5
789053,-291,23,951,-15,58,15
789054,-290,21,949,4,25,24
789055,-291,24,949,24,-1,28
789056,-295,25,968,26,-16,28
789057,-291,21,964,18,-25,22
789058,-293,24,964,18,-35,21
789059,-294,23,969,16,-37,21
789060,-285,34,973,12,-29,20
789061,-291,31,969,4,-21,16
789062,-288,23,961,1,-17,17
789063,-287,10,962,0,-23,16
789064,-298,34,967,11,-34,25
789065,-294,4,971,-12,-37,9
789066,-289,35,988,-9,-30,17
789067,-281,32,979,-23,-1,7
789068,-283,19,974,-37,28,2
789069,-293,32,970,-39,37,4
789070,-296,-4,938,-77,23,-9
789071,-286,21,971,-25,15,16
789072,-297,38,964,-35,4,12
789073,-289,-20,948,-72,-3,-10
789074,-290,31,986,-32,2,17
789075,-292,33,974,-56,22,3
789076,-280,18,973,-64,37,-2
789077,-299,19,958,-107,30,-14
789078,-288,52,972,-37,35,9
789079,-296,5,955,-36,20,10
789080,-283,-4,950,-63,10,-1
789081,-292,-9,944,-57,0,6
789082,-296,14,977,-22,9,26
789083,-297,49,957,-64,12,2
789084,-287,-9,977,-19,19,12
789085,-309,40,962,-62,2,16
789086,-286,-2,975,-28,21,18
789087,-302,33,968,-48,25,22
789088,-298,17,965,-59,42,2
789089,-310,70,974,-60,30,5
789090,-285,-22,947,-68,18,-1
789091,-305,16,983,-49,21,18
789092,-297,14,976,-81,28,2
789093,-299,11,969,-88,28,1
789094,-290,18,986,-92,42,-6
789095,-300,11,972,-116,51,-11
789096,-298,8,957,-115,61,-5
789097,-292,16,939,-86,69,9
789098,-304,5,964,-69,77,12
789099,-302,3,954,-81,64,10
789100,-303,4,944,-69,36,18
789101,-289,8,938,-38,25,24
789102,-300,7,944,-9,12,34
789103,-303,2,956,3,-12,42
789104,-303,8,963,15,-32,44
789105,-297,6,962,21,-37,48
789106,-317,8,959,-35,-32,30
789107,-304,-23,963,-25,-11,31
789108,-297,55,1001,36,-2,63
789109,-298,7,956,31,6,53
789110,-302,-18,943,0,0,39
789111,-303,-2,947,0,-22,35
789112,-305,-19,940,35,-53,44
789113,-302,-10,945,9,-54,26
789114,-298,-9,975,20,-45,30
789115,-305,24,982,42,-43,37
789116,-300,6,962,28,-30,24
789117,-301,-3,962,10,0,22
789118,-310,0,968,18,13,29
789119,-337,56,1005,-52,-16,2
789120,-279,-32,945,-38,-21,-7
789121,-285,4,936,7,26,27
789122,-329,20,957,25,40,35
789123,-320,16,959,31,-21,33
789124,-290,2,949,18,-80,21
789125,-284,-5,964,39,-71,30
789126,-308,40,985,40,-46,36
789127,-301,6,983,21,-30,19
789128,-299,12,967,25,-18,23
789129,-289,2,959,31,3,26
789130,-309,28,957,21,4,19
789131,-306,-15,938,0,-24,-17
789132,-292,0,955,46,-51,14
789133,-308,32,954,48,-72,15
789134,-294,6,956,43,-77,14
789135,-301,13,971,51,-58,25
789136,-300,7,975,48,-39,24
789137,-292,13,974,35,-21,16
789138,-296,12,966,42,-7,26
789139,-304,16,970,41,1,32
789140,-326,31,947,-11,-8,9
789141,-290,-6,958,21,-15,11
789142,-288,9,959,53,-21,37
789143,-324,10,958,14,-31,24
789144,-302,0,973,-1,-35,14
789145,-292,44,989,37,-32,34
789146,-282,48,985,11,-22,15
789147,-291,0,957,-15,-7,0
789148,-310,13,959,-4,-9,16
789149,-305,5,953,-1,-30,22
789150,-291,11,970,-1,-37,18
789151,-303,15,971,-12,-46,14
789152,-307,7,978,-16,-44,11
789153,-297,9,976,-38,-22,-5
789154,-301,15,949,-46,0,2
789155,-297,-1,975,-7,17,20
789156,-307,26,955,-14,13,22
789157,-304,9,955,-53,2,-3
789158,-295,-4,951,-14,1,16
789159,-308,20,958,-11,-7,14
789160,-290,-20,950,8,-25,25
789161,-320,40,965,0,-40,24
789162,-290,-9,958,-26,-32,3
789163,-299,27,969,14,-18,23
789164,-296,18,976,24,0,30
789165,-298,20,966,1,11,22
789166,-302,4,934,-53,11,-11
789167,-299,-9,944,-19,-11,0
789168,-304,12,944,34,-39,27
789169,-303,4,961,21,-58,20
789170,-299,-15,967,28,-53,24
789171,-304,28,968,30,-47,27
789172,-298,5,970,20,-32,14
789173,-307,55,948,9,-32,3
789174,-289,-26,965,18,-26,-11
789175,-296,12,948,45,-58,25
789176,-295,12,967,63,-57,32
789177,-309,16,973,43,-49,25
789178,-304,15,985,36,-53,18
789179,-289,13,964,24,-56,16
789180,-294,70,974,2,-46,0
789181,-276,-26,971,-2,-12,-12
789182,-304,27,967,30,-20,26
789183,-298,7,972,23,-26,29
789184,-295,12,959,21,-11,32
789185,-306,6,955,14,0,26
789186,-306,1,952,12,-9,26
789187,-300,17,958,35,-21,35
789188,-304,-8,942,5,-36,11
789189,-286,3,969,36,-39,32
789190,-292,40,992,69,-30,47
789191,-289,7,958,30,-21,28
789192,-309,7,950,34,-4,33
789193,-312,27,963,37,-10,37
789194,-292,-17,956,21,-34,15
789195,-291,2,954,56,-49,42
789196,-294,18,981,95,-44,63
789197,-295,26,969,77,-29,55
789198,-298,8,965,35,-26,33
789199,-292,-25,956,63,-32,44
789200,-312,39,975,118,-32,79
789201,-291,79,995,86,-25,58
789202,-276,0,945,36,-25,15
789203,-301,10,970,75,-12,46
789204,-318,55,975,74,-20,51
789205,-283,37,974,51,-28,34
789206,-293,21,970,38,-32,35
789207,-285,12,984,49,-14,51
789208,-316,48,952,7,-6,30
789209,-288,-7,957,-11,-9,9
789210,-293,7,965,27,-6,34
789211,-309,45,957,22,-16,39
789212,-290,14,959,6,-30,21
789213,-289,28,959,17,-43,30
789214,-298,25,960,14,-44,28
789215,-288,13,968,20,-42,29
789216,-292,31,971,20,-36,30
789217,-298,25,970,1,-29,28
789218,-294,22,973,-5,-13,31
789219,-301,22,959,-3,0,28
789220,-294,20,960,0,-2,22
789221,-299,21,952,9,-25,21
789222,-298,20,957,22,-46,25
789223,-300,25,959,29,-56,28
789224,-299,27,964,32,-55,29
789225,-290,30,967,28,-46,29
789226,-301,22,971,20,-35,27
789227,-294,30,972,13,-28,26
789228,-297,31,967,9,-25,24
789229,-310,22,1009,-14,-27,18
789230,-297,18,961,-35,-32,15
789231,-278,20,964,-23,12,20
789232,-294,20,953,-11,54,23
789233,-306,23,945,-4,25,28
789234,-299,22,951,18,-37,30
789235,-284,31,964,25,-70,30
789236,-290,22,972,21,-57,30
789237,-297,27,985,17,-31,30
789238,-297,27,975,6,-9,25
789239,-294,18,965,0,11,23
789240,-296,27,951,2,13,24
789241,-304,23,944,9,-14,25
789242,-299,28,956,15,-53,23
789243,-291,26,966,17,-62,22
789244,-297,27,983,12,-42,21
789245,-295,26,979,6,-19,18
789246,-292,25,965,0,-3,18
789247,-289,17,963,2,0,19
789248,-294,20,957,4,-7,18
789249,-294,26,955,8,-21,21
789250,-291,24,964,11,-31,21
789251,-292,20,971,15,-32,23
789252,-298,30,967,12,-32,23
789253,-292,24,964,11,-27,23
789254,-291,23,962,14,-19,24
789255,-299,23,956,14,-19,24
789256,-264,44,962,21,-27,23
789257,-281,25,963,27,-42,26
789258,-289,30,966,27,-47,27
789259,-298,29,973,25,-45,28
789260,-290,27,970,26,-40,26
789261,-297,28,959,23,-32,25
789262,-290,19,967,21,-22,25
789263,-301,33,964,20,-21,25
789264,-291,29,966,14,-21,23
789265,-293,26,965,11,-18,22
789266,-296,24,968,13,-18,22
789267,-289,28,971,20,-23,26
789268,-295,25,969,18,-19,24
789269,-288,28,969,12,-12,23
789270,-299,23,959,11,-10,21
789271,-293,36,965,11,-16,22
789272,-285,29,958,19,-23,26
789273,-294,26,956,23,-28,30
789274,-298,25,959,31,-39,32
789275,-292,26,964,40,-51,35
789276,-293,30,973,40,-55,34
789277,-286,27,974,37,-55,32
789278,-293,36,965,40,-46,37
789279,-287,27,960,35,-39,36
789280,-288,25,965,39,-44,37
789281,-287,35,963,37,-58,39
789282,-289,24,965,33,-64,39
789283,-288,24,973,37,-60,42
789284,-309,14,959,35,-51,42
789285,-303,23,973,28,-46,47
789286,-289,28,971,8,-37,44
789287,-290,24,972,0,-35,45
789288,-291,34,976,-7,-46,41
789289,-287,35,964,-14,-52,38
789290,-288,28,975,-11,-42,37
789291,-295,28,972,-8,-28,36
789292,-290,29,971,-2,-16,39
789293,-285,37,973,0,-6,42
789294,-295,35,964,-2,0,38
789295,-290,24,962,4,0,37
789296,-292,31,964,13,-1,37
789297,-290,36,958,21,-1,37
789298,-287,30,964,25,-5,34
789299,-291,38,969,28,-14,30
789300,-284,33,961,31,-18,31
789301,-291,33,955,35,-14,31
789302,-294,31,963,39,-21,32
789303,-294,34,967,45,-42,33
789304,-288,29,977,45,-51,35
789305,-286,37,975,37,-39,32
789306,-293,31,977,28,-23,30
789307,-283,31,969,29,-17,32
789308,-293,30,965,35,-14,37
789309,-293,30,980,33,-17,40
789310,-291,34,975,28,-20,42
789311,-289,40,976,19,-9,41
789312,-331,51,938,-84,-17,6
789313,-267,-57,945,-18,-35,12
789314,-308,99,996,72,-52,66
789315,-274,31,995,5,-11,25
789316,-297,42,977,-25,26,16
789317,-291,40,961,-34,39,14
789318,-290,21,958,-28,32,14
789319,-296,41,949,-9,7,21
789320,-292,26,967,-3,-20,18
789321,-290,31,968,0,-38,19
789322,-284,30,976,2,-28,18
789323,-290,40,971,-2,-6,18
789324,-285,30,967,-11,7,15
789325,-294,33,958,-7,-1,15
789326,-291,28,959,-1,-15,18
789327,-293,37,964,8,-22,23
789328,-295,39,974,7,-16,23
789329,-286,33,968,-2,-4,18
789330,-290,33,958,-8,3,15
789331,-294,37,958,-2,-2,16
789332,-294,33,966,0,-16,17
789333,-290,35,960,3,-24,16
789334,-290,32,968,11,-20,18
789335,-290,39,975,11,-16,17
789336,-294,30,963,11,-18,15
789337,-290,31,968,22,-18,23
789338,-291,30,967,23,-16,25
789339,-290,29,964,16,-15,23
789340,-288,35,967,18,-11,24
789341,-298,31,964,18,-10,24
789342,-293,36,969,24,-16,28
789343,-291,30,964,20,-23,26
789344,-286,31,965,16,-21,25
789345,-293,38,967,14,-14,24
789346,-295,32,970,3,-15,20
789347,-292,36,964,0,-18,18
789348,-289,31,961,2,-21,21
789349,-293,31,965,4,-23,23
789350,-289,34,966,6,-21,23
789351,-295,32,967,3,-17,24
789352,-292,26,965,7,-18,27
789353,-287,38,974,17,-14,30
789354,-288,37,964,20,-2,32
789355,-286,37,957,21,2,33
789356,-293,38,958,21,-5,30
789357,-290,37,965,19,-21,28
789358,-293,41,969,14,-32,25
789359,-290,36,975,18,-30,26
789360,-295,65,983,0,-18,20
789361,-283,10,965,6,-21,17
789362,-286,75,981,14,-25,23
789363,-282,25,962,0,-16,16
789364,-289,42,971,7,-9,25
789365,-297,32,969,0,-11,21
789366,-290,31,960,3,-22,26
789367,-292,37,965,8,-23,28
789368,-294,31,967,10,-18,27
789369,-293,40,966,7,-19,28
789370,-290,31,956,4,-22,28
789371,-290,31,965,13,-21,34
789372,-289,38,966,13,-27,34
789373,-291,32,968,5,-43,37
789374,-290,28,970,6,-53,40
789375,-291,39,962,9,-44,42
789376,-292,39,972,7,-29,38
789377,-287,31,974,11,-21,39
789378,-283,28,966,18,-19,42
789379,-293,38,960,28,-16,46
789380,-293,37,964,31,-9,47
789381,-296,41,973,23,-12,49
789382,-299,148,1012,-48,-31,33
789383,-218,-40,993,82,-43,45
789384,-316,94,973,53,-81,63
789385,-269,19,1002,21,-28,37
789386,-287,29,970,14,28,41
789387,-301,33,957,0,39,44
789388,-368,-89,827,-194,-46,-6
789389,-249,57,1018,72,-92,79
789390,-308,50,971,67,-89,54
789391,-288,35,992,21,-40,42
789392,-285,46,976,23,11,39
789393,-281,-134,871,-58,-12,-44
789394,-319,115,963,71,-77,84
789395,-269,19,991,62,-46,41
789396,-332,58,909,-78,-60,18
789397,-233,11,1015,83,-81,56
789398,-315,82,947,23,-107,35
789399,-280,19,999,-7,-75,19
789400,-287,46,968,-7,-65,14
789401,-287,36,965,-21,-80,12
789402,-280,37,963,-16,-92,11
789403,-283,40,966,-18,-96,14
789404,-285,31,978,-11,-84,13
789405,-277,36,981,-2,-60,17
789406,-285,40,982,-3,-32,18
789407,-285,34,965,-10,-12,18
789408,-290,41,968,-16,-9,16
789409,-272,31,959,-7,-12,15
789410,-286,37,965,-4,-11,15
789411,-282,38,961,-3,-4,15
789412,-284,44,971,-2,-9,16
789413,-286,40,964,-6,-22,16
789414,-277,40,961,-12,-32,11
789415,-284,41,965,-15,-29,7
789416,-290,29,963,-7,-23,5
789417,-282,39,958,-1,-35,-2
789418,-285,22,960,7,-59,0
789419,-275,39,969,7,-73,9
789420,-284,44,983,10,-65,8
789421,-277,38,972,-2,-58,-1
789422,-277,40,984,-7,-49,0
789423,-283,37,981,-9,-42,-2
789424,-288,37,973,-9,-35,-2
789425,-280,36,972,-7,-30,-6
789426,-284,32,962,0,-23,-12
789427,-278,36,970,0,-31,-14
789428,-284,35,972,0,-53,-6
789429,-284,33,970,-9,-64,-11
789430,-273,41,967,-28,-54,-9
789431,-274,35,975,-4,-24,2
789432,-277,42,958,-6,-13,4
789433,-286,33,964,-9,-24,0
789434,-279,38,960,0,-47,4
789435,-275,35,968,5,-63,6
789436,-283,35,979,4,-65,5
789437,-282,40,980,0,-57,0
789438,-277,34,975,-10,-46,-5
789439,-277,33,974,-11,-42,-3
789440,-277,36,973,-11,-42,-1
789441,-284,41,974,-7,-43,0
789442,-272,29,970,-11,-41,-10
789443,-284,33,973,-7,-35,-2
789444,-277,34,976,-5,-28,-2
789445,-281,34,963,-5,-28,0
789446,-271,34,967,-2,-27,2
789447,-278,32,967,7,-32,7
789448,-278,33,970,6,-41,8
789449,-274,39,969,2,-45,4
789450,-282,31,968,7,-46,6
789451,-275,37,976,5,-42,3
789452,-281,32,968,5,-38,2
789453,-279,28,970,2,-39,4
789454,-272,41,979,4,-33,1
789455,-277,40,971,0,-36,0
789456,-269,27,972,2,-37,2
789457,-272,29,975,2,-33,8
789458,-273,37,976,9,-24,13
789459,-267,32,981,2,-16,10
789460,-271,29,971,9,-16,10
789461,-265,35,972,12,-18,14
789462,-278,29,965,15,-23,18
789463,-278,36,963,15,-29,20
789464,-276,36,970,18,-31,21
789465,-276,40,975,18,-30,22
789466,-277,35,978,9,-30,18
789467,-270,38,973,8,-23,16
789468,-276,35,976,7,-16,17
789469,-272,33,976,6,-16,18
789470,-276,35,977,0,-9,14
789471,-275,37,971,-9,-4,9
789472,-281,38,966,-9,-14,11
789473,-295,45,939,-112,-42,-9
789474,-241,-28,963,-9,-102,-4
789475,-294,78,989,21,-111,29
789476,-248,3,1012,-11,-42,7
789477,-282,55,981,-16,16,10
789478,-273,26,959,-45,23,-2
789479,-277,26,953,-27,-7,2
789480,-281,32,965,-13,-50,6
789481,-272,22,973,-1,-68,-7
789482,-274,49,968,2,-64,-15
789483,-281,26,971,8,-60,-4
789484,-263,37,985,2,-50,-5
789485,-267,37,984,-2,-39,-18
789486,-270,28,966,-13,-36,-7
789487,-270,23,976,-9,-21,-13
789488,-273,29,956,-10,-36,-7
789489,-273,25,977,-2,-53,-5
789490,-264,33,966,0,-58,-13
789491,-259,35,974,5,-64,-2
789492,-264,36,966,10,-57,9
789493,-273,31,984,7,-39,13
789494,-273,32,979,-3,-34,11
789495,-267,31,965,-18,-32,9
789496,-271,38,968,-14,-32,12
789497,-276,6,958,-18,-56,2
789498,-268,43,985,0,-75,22
789499,-264,26,986,-7,-62,5
789500,-276,27,973,-15,-39,7
789501,-286,87,1005,-23,-25,9
789502,-264,-25,944,-19,-53,-10
789503,-279,54,976,2,-79,24
789504,-249,4,997,-2,-59,7
789505,-271,45,986,-8,-32,12
789506,-262,24,978,-24,-7,5
789507,-267,25,962,-17,-5,7
789508,-270,24,964,-9,-27,10
789509,-273,23,972,-7,-51,11
789510,-264,27,980,-6,-60,12
789511,-264,30,982,-9,-46,11
789512,-265,27,982,-11,-25,12
789513,-266,25,969,-14,-15,8
789514,-264,32,963,-7,-21,10
789515,-270,29,971,-5,-34,9
789516,-268,26,975,-5,-47,9
789517,-269,26,977,-4,-45,11
789518,-260,28,984,0,-28,14
789519,-264,28,974,-1,-16,14
789520,-264,29,967,-3,-14,14
789521,-260,18,963,7,-21,18
789522,-264,27,968,17,-35,21
789523,-261,30,981,18,-42,23
789524,-259,27,983,16,-32,21
789525,-260,32,975,18,-10,23
789526,-262,22,975,14,3,20
789527,-265,25,965,14,-3,21
789528,-264,31,967,16,-16,21
789529,-260,21,971,19,-26,22
789530,-273,26,972,25,-34,25
789531,-264,21,976,28,-33,26
789532,-274,25,983,25,-23,28
789533,-266,29,981,23,-11,26
789534,-269,29,967,21,-7,25
789535,-265,27,970,22,-9,26
789536,-272,33,971,27,-21,26
789537,-267,33,969,19,-32,23
789538,-269,26,975,12,-31,21
789539,-265,26,976,13,-30,21
789540,-270,24,969,16,-28,23
789541,-269,33,981,18,-22,24
789542,-269,37,967,15,-17,23
789543,-266,21,972,16,-19,22
789544,-264,26,977,17,-27,23
789545,-264,25,971,19,-28,25
789546,-264,33,980,20,-23,25
789547,-262,32,974,15,-20,25
789548,-267,26,975,11,-18,21
789549,-266,28,973,15,-21,23
789550,-269,36,975,16,-14,25
789551,-254,35,969,12,-7,23
789552,-264,29,973,14,-5,23
789553,-267,26,973,15,-12,21
789554,-269,27,970,21,-25,23
789555,-264,37,983,16,-28,23
789556,-269,31,977,4,-24,16
789557,-267,29,976,-1,-22,16
789558,-270,25,972,-3,-29,14
789559,-264,26,978,-2,-37,13
789560,-264,35,982,-13,-41,2
789561,-263,33,967,-10,-37,7
789562,-261,22,981,2,-27,14
789563,-260,36,983,1,-16,11
789564,-258,45,980,-13,-2,3
789565,-270,21,968,-7,0,7
789566,-267,22,962,3,-15,12
789567,-261,38,954,2,-30,0
789568,-265,38,975,20,-38,8
789569,-273,30,980,23,-49,9
789570,-263,27,978,12,-53,11
789571,-260,36,982,7,-35,10
789572,-259,31,978,9,-16,14
789573,-260,35,973,9,-14,19
789574,-264,33,967,6,-18,20
789575,-260,27,969,8,-24,20
789576,-264,27,974,18,-25,23
789577,-266,26,983,12,-36,21
789578,-254,37,977,7,-30,19
789579,-264,33,977,2,-12,17
789580,-265,27,974,1,-14,17
789581,-262,31,971,2,-29,18
789582,-264,27,976,7,-34,19
789583,-264,30,987,4,-35,19
789584,-261,31,986,-3,-35,15
789585,-257,33,982,-7,-23,13
789586,-265,29,980,-5,-10,15
789587,-264,30,967,-2,-11,15
789588,-265,34,975,-2,-18,14
789589,-260,25,973,1,-21,16
789590,-263,34,976,4,-20,15
789591,-263,28,970,9,-16,17
789592,-259,31,972,9,-16,18
789593,-273,26,976,11,-25,18
789594,-264,30,966,16,-29,20
789595,-260,31,970,12,-23,18
789596,-263,25,973,10,-24,18
789597,-263,29,975,11,-32,18
789598,-257,24,979,9,-26,18
789599,-262,31,973,4,-11,15
789600,-264,33,970,1,-4,14
789601,-261,25,968,3,-9,16
789602,-261,25,969,3,-16,17
789603,-264,40,977,7,-24,22
789604,-257,31,982,4,-20,14
789605,-262,29,978,0,-11,14
789606,-260,29,970,-1,-10,12
789607,-265,30,966,2,-12,12
789608,-265,32,974,8,-18,15
789609,-264,24,969,14,-25,19
789610,-262,29,981,15,-28,19
789611,-265,33,980,13,-25,18
789612,-259,35,976,7,-21,17
789613,-259,26,978,2,-16,16
789614,-264,36,974,4,-17,18
789615,-266,27,977,8,-22,21
789616,-260,30,974,6,-20,20
789617,-259,30,980,3,-15,18
789618,-261,26,973,5,-12,19
789619,-260,34,969,7,-16,18
789620,-260,31,972,6,-20,19
789621,-262,31,970,2,-21,18
789622,-263,28,979,5,-18,19
789623,-270,31,978,8,-15,21
789624,-263,33,981,5,-12,19
789625,-263,27,976,0,-7,16
789626,-257,26,978,2,-4,17
789627,-263,28,970,9,-4,18
789628,-261,29,970,15,-11,21
789629,-256,34,973,21,-16,23
789630,-258,29,976,24,-13,25
789631,-258,25,973,27,-7,25
789632,-260,35,970,25,-3,25
789633,-260,29,972,25,-5,25
789634,-266,32,973,25,-9,27
789635,-262,31,973,25,-16,26
789636,-268,33,972,25,-24,25
789637,-265,32,980,23,-27,25
789638,-261,34,977,21,-18,24
789639,-264,32,978,15,-4,23
789640,-269,40,975,11,2,23
789641,-265,30,969,10,-3,22
789642,-264,35,973,9,-10,22
789643,-266,33,976,4,-10,18
789644,-264,31,970,3,-9,17
789645,-262,27,967,3,-11,18
789646,-264,34,970,3,-11,18
789647,-266,30,980,0,-14,16
789648,-264,25,977,-2,-11,15
789649,-267,28,976,-3,-10,16
789650,-267,28,978,-3,-10,16
789651,-257,25,969,-3,-11,9
789652,-267,37,975,-2,-14,18
789653,-259,30,969,-8,-9,8
789654,-266,35,968,-4,-11,11
789655,-271,28,970,-3,-23,13
789656,-265,22,967,0,-33,9
789657,-260,35,965,-2,-39,-2
789658,-270,24,966,3,-56,9
789659,-266,33,983,12,-58,13
789660,-264,43,979,4,-38,10
789661,-263,37,981,-1,-16,11
789662,-264,30,975,-4,-2,14
789663,-265,29,961,-9,1,13
789664,-265,35,964,-1,-3,18
789665,-265,32,961,3,-14,21
789666,-261,28,980,14,-19,23
789667,-263,33,971,10,-15,21
789668,-261,31,970,5,-9,20
789669,-263,29,974,11,-9,21
789670,-263,28,968,12,-11,20
789671,-264,35,964,18,-14,24
789672,-262,40,978,18,-17,23
789673,-261,25,975,18,-18,23
789674,-271,35,976,14,-19,22
789675,-267,31,969,6,-19,20
789676,-262,31,976,7,-16,20
789677,-259,24,967,6,-15,20
789678,-268,28,973,11,-22,21
789679,-267,35,970,7,-28,19
789680,-264,36,971,6,-28,19
789681,-262,32,979,1,-23,18
789682,-268,37,975,2,-21,18
789683,-255,31,975,3,-17,19
789684,-267,30,978,6,-17,19
789685,-268,32,977,7,-23,21
789686,-260,28,977,5,-22,18
789687,-262,33,976,6,-16,20
789688,-264,34,974,2,-13,18
789689,-263,28,975,0,-16,17
789690,-259,30,974,1,-21,17
789691,-264,35,978,2,-26,17
789692,-266,33,975,0,-27,16
789693,-271,27,971,0,-22,16
789694,-263,27,966,-1,-18,14
789695,-266,20,974,4,-25,18
789696,-278,43,978,0,-35,20
789697,-261,23,972,0,-36,17
789698,-266,28,982,6,-39,19
789699,-266,39,973,-3,-44,14
789700,-262,24,968,-4,-40,14
789701,-266,29,973,0,-29,16
789702,-261,30,979,1,-26,17
789703,-259,32,976,0,-19,15
789704,-265,33,968,0,-12,13
789705,-262,29,968,0,-18,16
789706,-264,29,976,6,-34,16
789707,-257,33,979,2,-35,15
789708,-258,33,977,-5,-22,7
789709,-267,31,972,-6,-14,7
789710,-261,32,968,-1,-16,12
789711,-267,37,972,2,-17,14
789712,-260,31,978,7,-21,16
789713,-260,32,975,7,-26,18
789714,-270,35,975,4,-23,15
789715,-261,30,971,-1,-18,14
789716,-260,37,972,-2,-18,14
789717,-260,30,970,2,-20,16
789718,-264,34,970,4,-25,18
789719,-263,33,977,5,-32,18
789720,-259,32,979,3,-30,17
789721,-261,31,981,4,-21,17
789722,-262,32,978,5,-13,18
789723,-265,35,975,5,-11,18
789724,-259,24,975,1,-10,17
789725,-262,28,975,3,-9,18
789726,-264,24,973,2,-9,16
789727,-263,27,976,4,-18,18
789728,-257,36,973,8,-21,19
789729,-272,32,981,7,-23,18
789730,-261,39,983,7,-19,19
789731,-260,32,976,2,-11,18
789732,-263,30,975,4,-3,18
789733,-264,55,983,7,-3,18
789734,-263,20,976,6,-9,18
789735,-267,38,975,5,-12,16
789736,-267,35,972,-2,-10,16
789737,-268,32,977,-3,-5,16
789738,-264,34,975,-3,-3,15
789739,-264,37,975,-2,-2,15
789740,-261,25,978,-1,-5,14
789741,-261,32,972,-1,-9,16
789742,-262,30,965,-2,-7,14
789743,-266,30,972,3,-7,15
789744,-263,28,972,7,-15,17
789745,-264,28,966,14,-17,21
789746,-262,31,973,18,-11,23
789747,-266,28,972,18,-14,22
789748,-266,31,975,16,-21,20
789749,-258,29,974,9,-18,20
789750,-263,27,977,7,-12,19
789751,-263,33,980,7,-14,19
789752,-263,30,971,2,-16,18
789753,-259,29,974,0,-17,18
789754,-265,24,975,2,-19,17
789755,-265,27,981,3,-15,18
789756,-264,29,978,2,-5,17
789757,-267,31,973,0,0,18
789758,-266,33,969,-2,-1,17
789759,-264,31,971,-4,-9,17
789760,-263,29,969,1,-16,18
789761,-265,35,974,1,-16,18
789762,-263,28,974,-2,-14,16
789763,-255,31,975,-3,-14,17
789764,-264,32,972,0,-7,18
789765,-267,22,970,2,0,18
789766,-271,27,976,6,-6,18
789767,-263,24,972,8,-13,21
789768,-257,30,976,16,-10,23
789769,-264,34,982,19,0,25
789770,-265,31,977,16,10,23
789771,-268,27,970,20,15,25
789772,-269,32,971,19,11,24
789773,-263,19,971,19,-3,16
789774,-268,38,979,29,-12,25
789775,-267,35,982,23,-13,24
789776,-264,21,967,12,-4,19
789777,-320,116,933,-158,-11,14
789778,-169,-95,1009,98,-61,53
789779,-317,131,966,58,-96,51
789780,-244,-15,1015,-12,-39,23
789781,-270,34,992,9,41,18
789782,-273,44,946,-13,54,15
789783,-262,7,938,-2,10,17
789784,-276,49,965,27,-46,25
789785,-261,22,990,30,-72,25
789786,-264,45,996,14,-46,21
789787,-258,27,985,0,3,18
789788,-270,39,959,-7,25,15
789789,-277,23,953,2,4,18
789790,-270,62,972,13,-34,23
789791,-255,26,975,21,-49,25
789792,-264,43,994,17,-32,22
789793,-264,32,969,2,-9,17
789794,-260,24,967,1,-2,14
789795,-273,36,963,14,-14,23
789796,-267,31,975,23,-29,24
789797,-263,34,980,18,-32,22
789798,-265,36,980,16,-21,23
789799,-261,26,982,16,-14,22
789800,-291,-62,817,-224,-60,-35
789801,-230,46,1020,74,-100,67
789802,-276,41,1003,66,-73,23
789803,-269,50,984,2,-16,29
789804,-257,15,995,4,46,19
789805,-278,25,930,-11,42,14
789806,-275,36,937,21,-14,34
789807,-274,50,971,19,-55,20
789808,-256,32,988,38,-68,31
789809,-264,40,1003,9,-47,16
789810,-270,38,995,-8,-7,17
789811,-270,35,976,-24,18,8
789812,-264,17,949,-23,15,8
789813,-277,40,959,-9,-14,16
789814,-269,31,978,-7,-39,13
789815,-266,40,991,-4,-32,16
789816,-262,32,984,-19,-2,11
789817,-270,36,976,-29,19,8
789818,-269,28,967,-36,21,5
789819,-269,33,963,-28,7,7
789820,-264,26,965,-23,-12,7
789821,-268,25,974,-18,-20,6
789822,-263,40,967,-15,-18,9
789823,-263,27,965,-9,-21,11
789824,-259,26,969,4,-30,16
789825,-268,31,975,11,-31,20
789826,-272,39,986,10,-30,18
789827,-259,30,985,3,-26,16
789828,-262,27,974,0,-11,15
789829,-268,33,968,1,2,16
789830,-267,32,968,7,-9,18
789831,-262,35,969,9,-27,18
789832,-264,33,971,10,-34,18
789833,-264,30,980,9,-30,19
789834,-266,31,979,3,-18,18
789835,-262,29,972,-2,-11,15
789836,-272,25,965,-2,-12,16
789837,-269,32,975,0,-23,17
789838,-261,30,974,5,-27,20
789839,-263,32,979,7,-25,19
789840,-257,30,976,3,-23,20
789841,-264,28,979,1,-18,19
789842,-268,32,969,2,-7,18
789843,-273,26,974,1,2,18
789844,-267,29,969,0,0,17
789845,-267,27,971,3,-9,17
789846,-263,27,975,11,-15,20
789847,-267,30,978,12,-11,21
789848,-272,32,977,4,-1,19
789849,-266,54,975,0,4,17
789850,-264,28,972,-1,9,17
789851,-269,45,975,0,14,19
789852,-264,26,966,-11,20,13
789853,-268,26,960,-4,17,14
789854,-271,21,958,11,8,15
789855,-264,27,967,37,-7,27
789856,-267,46,995,58,1,32
789857,-298,242,1028,52,16,28
789858,-245,-107,955,-47,-37,-64
789859,-280,81,1023,88,16,39
789860,-314,203,1090,-84,100,-28
789861,-279,-73,961,-247,37,-151
789862,-236,17,993,-52,65,-74
789863,-289,92,987,-92,121,-61
789864,-289,59,941,-256,189,-167
789865,-255,-31,1034,-294,182,-217
789866,-283,5,967,-370,99,-183
789867,-305,13,1010,-326,107,-130
789868,-288,11,1000,-400,155,-152
789869,-260,-24,944,-382,200,-114
789870,-307,-20,1003,-308,290,-88
789871,-303,7,931,-318,300,-70
789872,-271,-14,962,-267,316,-63
789873,-281,-18,964,-209,326,-53
789874,-295,-7,935,-137,320,-46
789875,-311,5,949,-149,246,-19
789876,-287,-1,944,-168,207,-25
789877,-299,-24,947,-135,209,-17
789878,-301,-26,941,-114,201,-11
789879,-302,4,928,-72,226,7
789880,-301,-26,943,-22,236,40
789881,-307,-20,956,-16,192,42
789882,-306,6,934,-34,164,35
789883,-311,-17,957,-37,121,20
789884,-308,-11,945,-87,67,-11
789885,-310,-12,953,-98,30,-26
789886,-316,-19,965,-89,21,-25
789887,-314,-11,966,-91,23,-25
789888,-320,-8,967,-101,27,-28
789889,-314,-13,953,-118,23,-35
789890,-309,-13,962,-128,28,-42
789891,-310,-16,959,-135,29,-42
789892,-321,-24,948,-138,27,-44
789893,-315,-24,948,-115,19,-32
789894,-324,-18,960,-124,-14,-35
789895,-308,-33,950,-141,-44,-44
789896,-298,-30,952,-124,-28,-33
789897,-306,-26,950,-96,15,-20
789898,-317,-25,954,-78,34,-12
789899,-315,-22,937,-67,18,-9
789900,-311,-37,945,-49,-17,-3
789901,-313,-27,943,-25,-50,4
789902,-311,-22,947,-13,-70,8
789903,-309,-35,964,-6,-74,10
789904,-318,-27,969,3,-65,15
789905,-319,-27,973,7,-50,16
789906,-317,-23,976,0,-27,16
789907,-312,-27,968,-2,2,16
789908,-313,-25,961,-2,22,16
789909,-307,-26,952,-5,21,15
789910,-314,-31,953,-3,-2,14
789911,-312,-31,946,5,-28,19
789912,-315,-31,957,25,-37,27
789913,-318,-21,975,28,-30,28
789914,-307,-36,958,14,-17,21
789915,-314,-17,976,7,7,21
789916,-316,-32,955,0,16,16
789917,-321,-32,955,13,17,23
789918,-319,-31,940,18,3,25
789919,-317,-35,943,18,-23,26
789920,-312,-32,947,29,-43,28
789921,-329,-28,963,40,-56,32
789922,-320,-23,964,35,-64,30
789923,-311,-25,959,25,-62,28
789924,-301,-25,957,20,-47,28
789925,-316,-20,963,13,-30,23
789926,-311,-27,954,5,-35,18
789927,-303,-34,959,4,-48,18
789928,-309,-32,955,12,-49,22
789929,-313,-23,958,10,-46,21
789930,-306,-41,956,11,-42,20
789931,-305,-26,958,22,-49,24
789932,-309,-27,965,24,-51,25
789933,-302,-32,978,14,-32,20
789934,-308,-14,964,9,-16,18
789935,-319,-31,960,0,-10,18
789936,-316,-22,952,-5,-11,14
789937,-318,-32,955,1,-10,16
789938,-321,-33,948,4,-14,22
789939,-332,-19,952,4,-34,20
789940,-321,-31,959,7,-46,21
789941,-317,-34,952,10,-46,23
789942,-307,-9,957,9,-45,21
789943,-317,-27,969,15,-39,22
789944,-325,-32,957,8,-35,23
789945,-329,-33,947,-1,-30,22
789946,-312,-32,958,0,-9,23
789947,-316,-36,947,-4,-2,22
789948,-332,-27,938,-9,-15,20
789949,-324,-30,940,1,-37,19
789950,-319,-24,945,11,-53,23
789951,-312,-22,959,25,-63,26
789952,-315,-21,962,18,-68,23
789953,-307,-21,965,6,-67,19
789954,-304,-30,966,7,-54,20
789955,-306,-30,963,14,-35,22
789956,-311,-25,963,18,-20,24
789957,-313,-23,957,16,-16,22
789958,-316,-27,956,15,-19,23
789959,-313,-31,958,20,-29,23
789960,-304,-22,960,23,-39,25
789961,-311,-30,962,30,-45,29
789962,-309,-19,961,28,-43,28
789963,-313,-27,969,18,-32,23
789964,-309,-22,959,7,-24,17
789965,-312,-24,961,7,-23,18
789966,-313,-20,957,8,-28,20
789967,-308,-23,958,7,-32,20
789968,-307,-19,962,4,-32,19
789969,-309,-23,958,4,-32,18
789970,-301,-26,966,5,-30,18
789971,-306,-22,958,8,-31,19
789972,-314,-20,954,8,-32,19
789973,-309,-32,961,10,-29,19
789974,-307,-25,964,10,-27,20
789975,-304,-20,968,7,-21,20
789976,-310,-17,965,5,-8,19
789977,-313,-25,959,-2,2,17
789978,-312,-25,957,2,-2,18
789979,-311,-28,947,11,-25,21
789980,-318,-29,936,11,-55,19
789981,-317,-20,954,21,-65,29
789982,-313,-22,973,30,-60,30
789983,-308,-14,974,9,-42,21
789984,-292,-42,982,-2,-7,14
789985,-305,-16,955,4,21,21
789986,-308,-17,957,-2,19,16
789987,-304,-24,944,-7,0,13
789988,-303,-35,944,7,-25,17
789989,-309,-21,956,27,-43,25
789990,-310,-22,973,30,-46,27
789991,-297,-14,974,23,-32,25
789992,-302,-22,969,12,-11,21
789993,-307,-23,965,5,4,18
789994,-316,-26,954,2,5,18
789995,-307,-24,956,7,-9,20
789996,-310,-19,952,12,-26,21
789997,-306,-24,960,15,-36,23
789998,-315,-26,964,18,-37,24
789999,-304,-20,961,12,-35,22
790000,-302,3,972,2,-29,15
790001,-305,-54,956,-8,-15,11
790002,-321,-23,954,7,-6,24
790003,-324,-23,947,-3,-11,22
790004,-306,-28,941,11,-19,27
790005,-298,-20,959,26,-20,29
790006,-298,-19,957,37,-28,31
790007,-302,-29,975,47,-35,35
790008,-305,4,965,45,-34,37
790009,-286,-15,983,26,-28,25
790010,-304,-22,964,29,-28,25
790011,-314,-28,959,36,-23,31
790012,-303,-15,959,33,-23,33
790013,-307,-27,948,23,-23,30
790014,-306,-31,945,36,-21,32
790015,-308,-18,944,60,-28,43
790016,-313,-19,947,72,-46,46
790017,-307,-20,954,82,-69,48
790018,-304,-25,949,98,-84,54
790019,-296,-15,953,111,-92,62
790020,-304,-16,962,130,-88,70
790021,-299,-11,975,142,-81,75
790022,-311,-10,977,141,-63,78
790023,-309,-6,957,121,-51,69
790024,-311,-6,949,129,-58,66
790025,-314,-20,956,147,-77,67
790026,-305,-1,982,142,-85,66
790027,-295,11,975,123,-72,53
790028,-295,-12,986,112,-56,39
790029,-305,-22,970,91,-43,38
790030,-300,0,969,98,-19,58
790031,-301,-2,971,100,-6,56
790032,-300,-7,955,77,-18,43
790033,-308,-3,952,74,-37,42
790034,-306,-11,942,67,-71,37
790035,-304,0,973,84,-88,46
790036,-302,2,972,69,-95,39
790037,-294,-3,979,66,-75,31
790038,-303,-1,978,68,-38,37
790039,-294,8,976,74,-12,39
790040,-300,13,958,8,-16,20
790041,-275,-6,940,68,15,37
790042,-308,0,946,108,37,50
790043,-312,-3,954,121,-6,53
790044,-291,16,967,126,-59,51
790045,-302,61,959,108,-95,42
790046,-284,-5,978,58,-98,3
790047,-302,-12,980,76,-79,16
790048,-295,16,979,100,-44,49
790049,-286,18,972,91,-7,49
790050,-302,0,969,47,3,25
790051,-295,2,941,72,-17,37
790052,-302,8,947,101,-36,51
790053,-300,16,948,102,-60,56
790054,-301,9,960,109,-86,54
790055,-289,17,974,110,-98,54
790056,-294,15,975,95,-90,49
790057,-292,20,983,88,-69,46
790058,-297,20,977,76,-46,40
790059,-294,14,975,68,-34,37
790060,-297,20,973,58,-21,35
790061,-285,20,966,41,-8,30
790062,-295,15,964,28,-1,23
790063,-290,12,958,36,-5,26
790064,-291,20,963,41,-21,27
790065,-294,13,958,35,-40,25
790066,-302,26,966,33,-51,25
790067,-292,18,975,23,-54,20
790068,-290,20,979,21,-37,19
790069,-289,20,974,6,-12,12
790070,-297,9,957,14,-6,14
790071,-295,17,959,30,-8,26
790072,-286,33,955,70,-23,31
790073,-308,57,961,76,-61,8
790074,-278,-18,950,0,-63,-31
790075,-297,-39,966,40,-47,14
790076,-313,64,984,107,-58,67
790077,-292,44,990,49,-74,35
790078,-276,1,952,-3,-49,11
790079,-297,22,969,29,-18,29
790080,-301,32,980,28,-23,29
790081,-275,0,960,11,-32,18
790082,-282,33,969,46,-23,35
790083,-283,35,971,32,-16,27
790084,-290,21,968,14,-25,19
790085,-285,19,968,8,-40,16
790086,-288,13,969,13,-45,20
790087,-295,34,975,17,-39,22
790088,-291,26,980,4,-23,16
790089,-287,26,972,-2,-9,13
790090,-287,27,963,0,-8,13
790091,-284,27,956,0,-19,13
790092,-283,21,959,8,-28,14
790093,-290,21,958,15,-45,14
790094,-288,16,965,18,-61,14
790095,-286,19,972,28,-63,18
790096,-286,20,974,24,-49,17
790097,-286,19,971,26,-22,20
790098,-289,20,961,28,-1,25
790099,-287,22,958,37,-2,29
790100,-289,14,958,50,-18,35
790101,-290,24,973,65,-30,43
790102,-293,24,961,72,-39,46
790103,-289,23,972,78,-53,48
790104,-285,25,973,78,-45,49
790105,-295,35,975,74,-30,47
790106,-289,32,977,71,-20,46
790107,-288,24,975,63,-7,44
790108,-287,27,973,57,4,39
790109,-291,33,967,48,4,39
790110,-288,29,954,42,-6,35
790111,-290,29,955,36,-20,31
790112,-290,31,965,37,-32,31
790113,-290,33,966,34,-42,29
790114,-285,35,973,32,-39,28
790115,-280,36,965,32,-23,28
790116,-289,33,964,25,-14,23
790117,-284,33,965,24,-18,23
790118,-289,25,959,36,-26,28
790119,-289,30,965,44,-32,31
790120,-288,30,959,46,-40,31
790121,-290,32,963,56,-49,34
790122,-287,33,968,59,-50,37
790123,-282,34,980,59,-44,37
790124,-284,32,968,53,-32,35
790125,-285,28,970,57,-16,38
790126,-283,34,973,63,-4,42
790127,-288,36,964,54,-5,42
790128,-291,34,959,49,-15,38
790129,-293,30,968,52,-25,39
790130,-282,44,963,53,-32,39
790131,-293,26,958,15,-44,21
790132,-284,15,965,39,-46,36
790133,-292,70,982,57,-40,46
790134,-269,18,975,12,-36,16
790135,-293,56,965,21,-42,23
790136,-285,60,983,30,-52,26
790137,-269,21,982,33,-54,24
790138,-280,47,983,49,-32,39
790139,-283,49,979,25,-4,31
790140,-294,32,958,3,9,18
790141,-288,40,956,6,-4,23
790142,-290,37,959,4,-28,21
790143,-285,35,969,7,-41,18
790144,-285,43,977,4,-36,18
790145,-283,36,981,-2,-11,16
790146,-285,37,970,-5,11,15
790147,-291,34,958,-4,8,14
790148,-284,34,963,0,-8,16
790149,-283,34,966,9,-23,18
790150,-285,44,971,14,-22,22
790151,-284,36,964,11,-10,21
790152,-289,40,962,13,1,23
790153,-286,40,962,22,-4,25
790154,-287,40,956,28,-18,25
790155,-291,44,966,37,-27,30
790156,-288,35,975,37,-37,30
790157,-290,40,973,34,-37,30
790158,-284,39,977,31,-31,29
790159,-285,40,970,24,-23,25
790160,-286,43,964,17,-18,22
790161,-288,45,961,18,-18,23
790162,-286,43,970,20,-16,25
790163,-286,42,974,14,-16,24
790164,-287,42,972,4,-12,22
790165,-296,79,973,1,-7,21
790166,-267,3,968,-27,-24,-7
790167,-282,27,959,25,-30,31
790168,-290,70,983,37,-18,38
790169,-284,26,968,-6,-7,13
790170,-287,81,981,7,-4,24
790171,-266,18,962,-2,-22,5
790172,-287,41,968,26,-39,24
790173,-290,52,977,15,-34,23
790174,-277,29,967,-5,-19,11
790175,-288,38,973,5,-6,18
790176,-287,44,972,9,-2,19
790177,-286,43,957,-2,-7,14
790178,-288,31,965,4,-9,16
790179,-286,41,964,14,-16,20
790180,-288,44,970,18,-25,22
790181,-287,40,960,14,-32,21
790182,-290,40,973,13,-30,19
790183,-286,40,973,14,-22,20
790184,-278,44,967,14,-11,21
790185,-287,38,974,11,0,20
790186,-289,34,969,3,2,18
790187,-290,40,962,4,-4,20
790188,-289,43,964,2,-14,19
790189,-288,41,976,-4,-19,15
790190,-289,40,978,-12,-23,12
790191,-287,33,970,-15,-23,11
790192,-279,43,965,-14,-16,13
790193,-284,39,972,-20,-9,10
790194,-287,33,963,-22,-7,10
790195,-289,33,960,-11,-10,15
790196,-283,40,955,0,-11,18
790197,-286,36,956,9,-21,21
790198,-285,39,958,18,-44,23
790199,-279,24,958,9,-60,18
790200,-282,48,967,35,-66,33
790201,-286,60,995,34,-56,28
790202,-277,32,977,13,-25,18
790203,-289,42,967,18,0,23
790204,-290,41,964,23,-5,25
790205,-287,43,958,17,-26,23
790206,-280,39,958,16,-40,22
790207,-288,42,979,16,-46,22
790208,-281,40,976,16,-44,21
790209,-279,40,970,19,-30,23
790210,-284,38,968,14,-16,21
790211,-283,32,957,14,-16,23
790212,-283,40,966,22,-18,27
790213,-285,40,969,25,-21,27
790214,-284,39,965,27,-28,28
790215,-288,38,969,31,-37,29
790216,-288,42,969,35,-42,31
790217,-277,40,975,35,-37,31
790218,-284,53,979,30,-22,30
790219,-287,73,977,22,-9,28
790220,-273,10,957,-11,-13,2
790221,-284,46,969,38,-27,31
790222,-289,65,991,32,-28,35
790223,-267,12,953,-32,-9,0
790224,-284,38,959,16,4,30
790225,-293,61,981,23,0,35
790226,-275,30,964,-2,9,17
790227,-283,43,963,16,30,30
790228,-319,44,950,-9,9,18
790229,-293,18,940,14,-29,27
790230,-301,64,969,56,-60,42
790231,-275,49,980,25,-65,23
790232,-273,32,977,21,-23,21
790233,-288,55,975,32,21,28
790234,-290,40,964,32,30,30
790235,-279,36,948,46,18,34
790236,-291,51,953,61,-2,40
790237,-305,47,939,7,-45,21
790238,-288,20,967,23,-80,30
790239,-288,64,994,68,-72,46
790240,-270,53,975,7,-37,17
790241,-276,19,966,9,-2,21
790242,-289,57,963,39,0,35
790243,-284,55,958,24,-30,27
790244,-286,43,957,28,-58,25
790245,-283,47,956,46,-71,31
790246,-286,48,976,54,-66,33
790247,-283,47,975,50,-44,35
790248,-285,50,975,48,-29,33
790249,-282,47,961,38,-28,32
790250,-281,49,965,37,-35,30
790251,-284,59,966,37,-44,30
790252,-283,56,978,35,-44,30
790253,-277,45,980,27,-31,25
790254,-284,52,976,9,-9,21
790255,-280,50,971,0,0,18
790256,-281,40,967,0,4,17
790257,-285,52,961,4,8,19
790258,-285,54,969,0,2,16
790259,-289,60,950,-20,-20,9
790260,-273,34,959,-13,-42,9
790261,-285,56,980,11,-51,19
790262,-284,60,985,-1,-42,15
790263,-279,39,981,-17,-7,10
790264,-279,46,975,-10,19,17
790265,-292,49,970,-10,19,18
790266,-282,46,950,-13,5,14
790267,-281,48,955,-6,-14,16
790268,-285,54,963,-2,-39,16
790269,-283,50,964,-2,-53,14
790270,-273,50,975,2,-44,16
790271,-283,50,975,3,-16,18
790272,-282,51,964,0,3,17
790273,-275,53,951,-14,-1,17
790274,-277,42,960,-2,-22,13
790275,-283,51,978,20,-36,23
790276,-280,53,982,4,-35,19
790277,-274,40,976,-3,-11,15
790278,-281,51,970,4,11,19
790279,-288,57,976,-2,16,18
790280,-281,43,961,-10,4,14
790281,-283,41,949,0,-18,16
790282,-280,46,956,8,-39,19
790283,-288,50,963,7,-53,16
790284,-277,47,974,12,-51,18
790285,-284,63,979,9,-36,18
790286,-279,32,965,-11,-19,12
790287,-278,46,971,7,-5,22
790288,-285,58,973,16,-9,25
790289,-275,51,952,-5,-14,16
790290,-276,42,955,2,-36,12
790291,-281,49,981,19,-46,22
790292,-281,52,987,14,-45,21
790293,-270,53,981,10,-31,21
790294,-271,58,978,-1,-14,12
790295,-282,42,958,-8,11,12
790296,-290,55,968,2,2,19
790297,-283,48,960,0,-13,17
790298,-277,44,957,2,-20,15
790299,-284,50,969,9,-33,19
790300,-281,51,969,4,-48,15
790301,-277,42,975,7,-53,14
790302,-283,55,981,4,-37,14
790303,-277,50,991,-2,-23,13
790304,-275,45,970,-7,-11,13
790305,-279,52,967,-5,-4,14
790306,-284,51,966,-6,-11,13
790307,-279,43,966,-6,-30,8
790308,-277,47,973,-3,-44,9
790309,-281,44,967,0,-45,9
790310,-282,50,981,0,-35,9
790311,-280,48,980,-7,-22,9
790312,-272,41,981,-15,0,9
790313,-284,47,974,-18,18,10
790314,-287,47,969,-20,13,9
790315,-279,49,955,-15,-8,9
790316,-288,42,964,-6,-25,12
790317,-286,45,965,1,-37,14
790318,-282,51,971,-1,-38,13
790319,-278,47,968,-2,-26,13
790320,-277,43,967,-3,-17,13
790321,-278,43,955,-1,-17,13
790322,-280,50,969,3,-24,16
790323,-286,46,971,6,-30,17
790324,-283,48,973,5,-32,16
790325,-283,47,968,6,-30,17
790326,-285,48,962,7,-23,18
790327,-284,44,968,5,-23,18
790328,-280,46,968,4,-30,16
790329,-283,47,970,7,-35,18
790330,-275,51,973,-3,-28,14
790331,-284,45,973,-9,-14,12
790332,-280,40,973,-10,-8,11
790333,-281,44,966,-10,2,14
790334,-282,50,966,-4,-4,12
790335,-283,42,957,-8,-29,9
790336,-281,38,954,2,-56,9
790337,-285,36,972,10,-88,12
790338,-276,49,990,15,-91,15
790339,-272,48,982,0,-49,11
790340,-279,44,975,-11,-4,10
790341,-281,47,965,-3,0,16
790342,-284,47,962,-5,-11,15
790343,-274,42,961,-4,-30,13
790344,-278,42,972,0,-39,13
790345,-275,46,983,3,-28,16
790346,-273,47,971,-7,-14,11
790347,-277,34,965,-4,-1,15
790348,-282,40,961,7,-7,21
790349,-274,48,958,11,-25,22
790350,-276,37,959,13,-36,22
790351,-277,47,971,18,-44,23
790352,-280,44,969,18,-48,21
790353,-277,43,972,23,-42,23
790354,-277,48,971,23,-25,24
790355,-278,44,970,23,-7,25
790356,-278,46,967,16,-2,23
790357,-288,48,960,18,-4,23
790358,-284,48,969,24,-18,25
790359,-275,52,970,21,-26,22
790360,-278,46,969,14,-32,20
790361,-279,48,974,11,-35,21
790362,-269,50,987,11,-23,18
790363,-280,48,972,4,-2,18
790364,-279,44,967,4,4,18
790365,-278,51,962,5,-7,18
790366,-284,42,961,0,-35,14
790367,-272,44,970,4,-59,16
790368,-274,45,985,12,-60,20
790369,-279,42,989,7,-30,19
790370,-278,46,983,1,11,18
790371,-279,43,957,-2,28,18
790372,-281,47,952,3,10,21
790373,-284,45,952,15,-35,22
790374,-279,44,967,25,-68,23
790375,-272,41,978,18,-70,22
790376,-279,52,989,12,-42,21
790377,-282,51,986,5,-6,18
790378,-281,47,965,0,12,19
790379,-283,38,955,6,-4,20
790380,-279,50,958,14,-33,22
790381,-275,50,970,18,-51,21
790382,-275,50,986,14,-42,20
790383,-276,45,981,7,-12,17
790384,-281,49,971,2,10,18
790385,-284,48,967,-2,4,18
790386,-276,45,956,2,-17,16
790387,-273,52,969,9,-36,18
790388,-278,50,974,6,-44,16
790389,-275,46,979,2,-37,16
790390,-282,50,985,-5,-19,14
790391,-275,45,976,-5,-4,16
790392,-275,48,968,-4,-5,16
790393,-278,44,969,-5,-14,16
790394,-281,52,967,-5,-21,15
790395,-274,39,972,-7,-23,16
790396,-276,47,973,-4,-19,16
790397,-272,46,979,-4,-6,17
790398,-272,57,976,-9,3,14
790399,-275,39,965,-11,0,11
790400,-277,49,965,-4,-11,13
790401,-279,41,968,-5,-23,13
790402,-279,51,975,-1,-26,14
790403,-282,38,967,-4,-22,13
790404,-275,42,973,2,-9,16
790405,-284,51,969,0,-2,10
790406,-276,45,959,5,-15,7
790407,-278,37,963,5,-35,12
790408,-277,50,972,10,-37,14
790409,-272,50,976,-5,-32,9
790410,-282,44,977,-6,-20,11
790411,-278,45,975,-1,-10,16
790412,-280,40,970,-2,-2,16
790413,-280,45,969,-2,0,16
790414,-281,44,965,-2,-1,16
790415,-279,38,966,-2,-7,16
790416,-276,43,967,2,-16,18
790417,-279,45,979,5,-19,17
790418,-273,44,973,3,-16,18
790419,-275,46,983,-4,-8,16
790420,-280,49,971,-10,-2,14
790421,-278,43,974,-14,2,12
790422,-280,48,967,-11,1,12
790423,-274,44,967,-7,-6,11
790424,-280,38,964,-5,-18,11
790425,-275,38,966,-3,-22,13
790426,-278,43,977,0,-16,14
790427,-275,45,969,-2,-7,13
790428,-280,45,973,-4,2,12
790429,-273,43,959,-2,4,14
790430,-278,43,962,4,-1,16
790431,-285,44,963,9,-12,16
790432,-284,45,969,11,-23,17
790433,-276,44,968,11,-24,16
790434,-277,51,970,8,-16,16
790435,-279,44,974,1,-9,15
790436,-286,45,969,-1,-7,15
790437,-281,41,968,-1,-7,16
790438,-283,40,959,1,-11,16
790439,-275,41,971,4,-21,17
790440,-283,47,969,5,-25,16
790441,-277,46,971,4,-22,16
790442,-276,44,972,4,-13,18
790443,-285,46,970,7,-8,18
790444,-280,48,967,4,-11,18
790445,-289,46,959,6,-16,18
790446,-273,40,971,4,-22,17
790447,-278,47,970,3,-23,18
790448,-284,44,975,5,-23,18
790449,-281,47,966,3,-25,18
790450,-281,40,970,2,-24,16
790451,-281,44,971,2,-25,16
790452,-283,39,968,1,-27,14
790453,-277,43,968,10,-28,14
790454,-276,45,968,16,-28,16
790455,-278,42,966,14,-32,17
790456,-280,43,970,14,-31,17
790457,-280,41,968,13,-30,17
790458,-276,40,968,15,-27,20
790459,-278,45,967,14,-22,21
790460,-279,44,971,10,-21,20
790461,-278,41,974,10,-23,20
790462,-284,48,971,11,-20,21
790463,-276,43,971,9,-16,21
790464,-279,43,971,8,-14,21
790465,-283,41,974,5,-14,20
790466,-272,44,972,9,-11,21
790467,-282,49,978,5,-7,20
790468,-281,46,973,0,-4,18
790469,-281,44,970,-2,-2,18
790470,-278,50,976,-4,0,18
790471,-283,49,970,-6,1,16
790472,-279,40,965,-17,5,9
790473,-284,62,975,-20,1,7
790474,-276,20,965,-28,0,-3
790475,-281,46,976,7,-1,16
790476,-303,51,945,-19,-7,2
790477,-265,18,966,-1,-12,-3
790478,-290,60,963,18,-29,14
790479,-279,31,968,-10,-33,-9
790480,-278,33,968,7,-32,-2
790481,-281,55,990,25,-26,15
790482,-241,45,922,15,-9,14
790483,-264,39,976,43,24,24
790484,-308,56,980,37,-6,23
790485,-281,40,976,8,-66,14
790486,-265,39,976,19,-60,20
790487,-275,51,975,12,-8,21
790488,-290,55,977,-4,18,16
790489,-270,25,960,-13,7,7
790490,-275,53,963,14,-21,20
790491,-269,56,967,11,-30,18
790492,-279,38,966,2,-27,13
790493,-285,48,973,16,-29,22
790494,-281,47,977,14,-32,22
790495,-272,44,969,11,-21,21
790496,-282,47,974,9,-12,21
790497,-282,41,970,4,-12,17
790498,-274,40,965,7,-14,18
790499,-278,40,969,14,-15,22
790500,-282,46,966,13,-20,21
790501,-282,45,976,15,-30,22
790502,-276,52,975,16,-32,22
790503,-284,51,977,11,-26,21
790504,-279,45,972,4,-21,17
790505,-278,46,977,4,-14,18
790506,-280,47,967,5,-9,18
790507,-281,45,970,0,-9,16
790508,-280,49,975,-1,-16,16
790509,-277,32,953,-20,-23,4
790510,-275,38,976,7,-30,20
790511,-283,63,986,11,-19,18
790512,-276,30,957,-9,-6,10
790513,-281,48,966,8,-4,22
790514,-285,51,972,9,-21,19
790515,-281,44,964,6,-29,19
790516,-278,47,968,12,-23,23
790517,-277,40,973,11,-20,20
790518,-284,46,967,20,-16,25
790519,-278,50,974,23,-14,27
790520,-277,44,963,17,-11,25
790521,-280,49,964,25,-18,28
790522,-280,53,968,28,-26,28
790523,-278,72,969,18,-22,23
790524,-273,18,964,-12,-19,0
790525,-280,48,970,41,-28,30
790526,-284,67,993,38,-32,32
790527,-277,27,967,-2,-21,13
790528,-282,45,970,15,-10,26
790529,-303,63,966,2,-22,19
790530,-275,-1,947,-18,-31,9
790531,-294,61,974,44,-34,44
790532,-287,59,979,9,-31,24
790533,-276,20,971,-5,-18,13
790534,-288,63,979,20,-9,28
790535,-260,52,971,-33,-6,0
790536,-261,21,962,-5,-10,11
790537,-284,81,994,31,-11,28
790538,-271,27,957,-17,-11,4
790539,-273,43,961,6,-3,20
790540,-289,61,972,12,-11,23
790541,-276,29,963,1,-29,16
790542,-281,51,969,12,-34,21
790543,-278,43,975,4,-30,17
790544,-280,39,970,4,-23,17
790545,-282,55,968,7,-20,18
790546,-276,40,970,7,-18,17
790547,-277,47,974,14,-18,21
790548,-280,53,970,2,-21,18
790549,-279,38,960,0,-21,17
790550,-284,54,965,14,-15,22
790551,-282,40,969,6,-14,18
790552,-278,48,965,11,-23,21
790553,-280,49,974,16,-26,23
790554,-279,44,972,15,-17,24
790555,-280,51,963,14,-6,24
790556,-277,48,965,7,-7,23
790557,-287,44,965,8,-16,22
790558,-286,46,969,7,-25,20
790559,-276,49,971,11,-29,22
790560,-284,47,969,7,-26,18
790561,-284,50,975,1,-21,16
790562,-277,42,973,3,-20,18
790563,-281,48,972,9,-19,21
790564,-283,54,970,9,-17,20
790565,-280,51,972,6,-19,21
790566,-275,49,972,4,-23,18
790567,-280,48,972,8,-20,21
790568,-281,46,979,7,-14,19
790569,-281,53,972,3,-9,18
790570,-282,47,966,-3,-7,16
790571,-279,41,970,-3,-11,15
790572,-281,51,961,1,-23,16
790573,-274,45,975,-3,-34,15
790574,-274,48,981,-4,-24,15
790575,-279,45,976,-11,-4,14
790576,-284,46,972,-18,3,10
790577,-275,44,970,-18,0,11
790578,-312,66,955,-51,-19,-3
790579,-276,0,942,-50,-46,-6
790580,-290,55,980,28,-66,32
790581,-278,56,982,-12,-60,11
790582,-265,32,967,-47,-16,-1
790583,-286,40,975,-14,20,12
790584,-286,58,970,-15,18,14
790585,-270,32,962,-23,0,7
790586,-278,50,957,-8,-8,13
790587,-291,49,975,-5,-18,14
790588,-277,48,969,-6,-25,13
790589,-274,40,972,-4,-23,14
790590,-282,37,969,-4,-14,15
790591,-286,39,958,-3,-7,17
790592,-286,56,968,6,-13,21
790593,-285,47,966,-2,-23,17
790594,-278,43,964,0,-32,17
790595,-273,57,967,8,-42,18
790596,-272,31,970,6,-42,14
790597,-278,48,968,8,-39,18
790598,-268,51,973,0,-31,16
790599,-269,38,974,1,-18,16
790600,-287,41,967,10,-17,20
790601,-282,41,969,19,-24,23
790602,-276,43,968,19,-29,23
790603,-281,45,970,14,-26,21
790604,-277,37,968,9,-31,18
790605,-273,46,973,14,-36,21
790606,-276,50,975,14,-30,21
790607,-282,46,976,8,-17,20
790608,-278,40,966,2,-9,16
790609,-280,42,962,0,-9,17
790610,-277,44,973,3,-14,18
790611,-283,42,969,4,-22,19
790612,-279,43,974,4,-32,17
790613,-281,38,971,7,-36,17
790614,-275,49,973,9,-28,18
790615,-279,45,977,7,-14,18
790616,-276,44,968,14,-6,21
790617,-275,43,961,23,-14,25
790618,-278,44,962,28,-29,25
790619,-275,49,963,28,-40,25
790620,-277,42,972,33,-45,26
790621,-279,49,978,35,-42,28
790622,-274,52,976,30,-29,27
790623,-276,41,969,23,-16,26
790624,-279,49,971,25,-13,27
790625,-280,45,967,25,-18,27
790626,-281,46,970,23,-25,24
790627,-277,49,977,23,-28,25
790628,-275,48,979,20,-27,24
790629,-280,51,981,14,-21,23
790630,-280,41,976,6,-10,20
790631,-278,48,972,3,-4,19
790632,-282,46,975,-6,-3,16
790633,-277,46,976,-14,-1,13
790634,-277,49,978,-19,1,13
790635,-285,40,979,-28,2,9
790636,-276,43,980,-36,6,5
790637,-282,51,976,-39,16,4
790638,-278,44,965,-50,32,1
790639,-283,45,976,-56,41,-1
790640,-283,43,977,-60,44,-2
790641,-282,36,977,-72,46,-5
790642,-282,45,975,-85,49,-9
790643,-282,38,980,-92,51,-13
790644,-285,42,972,-95,49,-15
790645,-291,39,979,-104,43,-20
790646,-298,53,983,-128,33,-29
790647,-303,55,989,-196,17,-61
790648,-290,48,991,-262,9,-102
790649,-280,-1,957,-205,36,-85
790650,-313,53,1009,-255,28,-82
790651,-310,53,1019,-308,7,-117
790652,-293,22,1048,-388,22,-154
790653,-276,22,1013,-464,92,-171
790654,-276,16,1017,-523,216,-178
790655,-300,14,993,-571,306,-165
790656,-269,19,969,-578,387,-167
790657,-291,12,958,-554,425,-179
790658,-277,-28,920,-511,400,-147
790659,-275,-22,909,-440,366,-116
790660,-298,-13,892,-331,303,-77
790661,-321,-20,902,-245,191,-56
790662,-318,-32,893,-169,58,-40
790663,-305,-26,900,-76,-53,-11
790664,-306,-15,940,-11,-126,19
790665,-296,2,969,-19,-144,8
790666,-288,-20,967,-29,-85,-4
790667,-297,-21,983,-14,0,5
790668,-313,-7,978,-14,58,11
790669,-308,-16,954,-15,84,15
790670,-300,-20,937,-7,95,32
790671,-304,-23,937,20,69,34
790672,-311,-15,932,43,31,38
790673,-314,-15,942,49,-17,39
790674,-312,-17,945,52,-53,39
790675,-297,-23,967,65,-65,39
790676,-311,-11,978,70,-55,44
790677,-302,-20,964,68,-31,42
790678,-311,-10,967,68,0,45
790679,-320,-17,966,61,17,46
790680,-318,-14,966,49,26,40
790681,-304,-15,936,58,30,39
790682,-322,-4,970,93,27,69
790683,-326,2,990,30,-16,42
790684,-305,-3,972,-25,-49,6
790685,-302,-24,956,-23,-30,6
790686,-301,-3,961,-4,10,15
790687,-318,-19,945,19,29,27
790688,-308,-10,921,22,23,28
790689,-312,-18,923,40,4,33
790690,-296,-36,882,127,-15,84
790691,-316,-27,918,212,-42,142
790692,-345,10,950,229,-122,140
790693,-324,6,965,225,-217,109
790694,-316,-2,969,207,-264,100
790695,-298,-13,986,204,-242,101
790696,-302,2,996,203,-170,105
790697,-300,19,995,168,-101,97
790698,-296,5,994,157,-51,118
790699,-310,6,988,136,-9,113
790700,-294,15,978,127,6,110
790701,-308,5,956,121,4,133
790702,-328,0,994,109,7,112
790703,-296,14,943,100,-11,74
790704,-317,8,945,94,-39,80
790705,-309,27,944,60,-59,65
790706,-311,5,995,70,-53,60
790707,-299,5,968,65,-28,52
790708,-285,3,923,95,-1,65
790709,-314,25,946,87,-5,92
790710,-339,60,1002,-19,-50,47
790711,-268,-24,953,32,-56,25
790712,-305,3,981,68,-33,52
790713,-326,68,1003,-32,-47,32
790714,-294,-30,1024,7,-13,13
790715,-352,37,1057,-76,1,1
790716,-271,-30,895,-24,24,13
790717,-306,0,951,-1,80,37
790718,-318,24,931,93,72,65
790719,-312,23,897,72,-16,53
790720,-325,8,937,112,-123,60
790721,-364,144,1142,-212,-256,-52
790722,-257,-73,948,19,-224,-46
790723,-263,-34,964,56,-53,46
790724,-338,173,1097,-203,62,-18
790725,-289,-36,1024,-121,125,-73
790726,-273,-17,893,-173,157,-45
790727,-327,36,991,-98,196,7
790728,-325,42,951,-149,141,-13
790729,-285,-10,911,-186,78,-48
790730,-285,-20,918,-97,82,-11
790731,-305,8,931,-26,86,33
790732,-322,9,975,-29,58,22
790733,-316,5,974,-84,5,-16
790734,-307,-10,952,-60,-7,-11
790735,-312,-4,975,-30,12,8
790736,-315,14,969,-45,31,3
790737,-306,9,957,-85,42,-13
790738,-316,0,973,-93,56,-17
790739,-305,-12,935,-72,62,-11
790740,-316,-12,938,-28,63,5
790741,-316,6,939,-2,37,18
790742,-320,3,947,0,-10,16
790743,-309,0,959,-3,-46,9
790744,-312,1,968,-1,-50,11
790745,-306,2,966,0,-30,12
790746,-316,5,979,-11,-4,7
790747,-315,7,977,-31,9,1
790748,-312,0,959,-23,26,7
790749,-310,-3,957,-25,43,18
790750,-314,-4,964,-7,54,21
790751,-320,6,955,-30,57,17
790752,-326,-1,992,-62,41,-2
790753,-291,-17,925,-38,30,0
790754,-311,-1,950,-14,46,22
790755,-344,0,971,-2,39,21
790756,-365,26,992,-81,-13,-9
790757,-340,-11,1008,-147,-52,-49
790758,-304,-20,965,-135,-47,-52
790759,-299,-25,960,-82,23,-16
790760,-323,3,944,-56,91,17
790761,-333,2,963,-78,109,8
790762,-320,-6,945,-125,71,-30
790763,-321,-3,944,-145,28,-45
790764,-318,-12,940,-139,5,-44
790765,-322,-17,957,-123,-2,-37
790766,-322,-12,950,-130,2,-39
790767,-316,-23,947,-111,9,-37
790768,-319,-23,942,-102,16,-26
790769,-290,-10,866,-22,32,14
790770,-418,-70,986,135,57,239
790771,-323,38,1095,-132,55,18
790772,-282,-3,914,-173,29,-79
790773,-336,-79,985,-123,18,-50
790774,-331,3,941,-153,18,-45
790775,-349,10,982,-136,-32,-44
790776,-318,13,951,-203,-52,-79
790777,-303,-14,980,-270,39,-143
790778,-300,-45,975,-373,148,-179
790779,-313,-83,947,-301,249,-147
790780,-353,-77,950,-134,301,-17
790781,-382,-18,950,-11,218,74
790782,-337,8,934,-51,86,71
790783,-324,-12,935,-113,-16,9
790784,-324,-33,959,-203,-28,-64
790785,-323,-34,967,-314,50,-106
790786,-348,-26,1000,-298,143,-111
790787,-359,-37,1028,-318,212,-119
790788,-352,-37,984,-361,260,-135
790789,-317,-53,913,-314,340,-123
790790,-308,-92,891,-182,447,-24
790791,-326,-89,880,-86,504,60
790792,-352,-49,883,-42,438,76
790793,-375,-40,881,-53,294,65
790794,-370,-37,890,-58,112,20
790795,-364,-44,892,-63,-32,-5
790796,-352,-54,927,-61,-105,-23
790797,-348,-61,955,-49,-95,-18
790798,-353,-60,975,-32,-34,-7
790799,-359,-45,983,-47,28,-6
790800,-357,-39,964,-66,84,-20
790801,-361,-56,950,-102,140,-24
790802,-361,-40,919,-169,158,-44
790803,-178,-24,759,-86,87,-66
790804,-400,-132,996,232,214,99
790805,-420,-121,1044,-69,389,46
790806,-445,35,975,-95,110,-41
790807,-401,-92,1003,-11,-42,41
790808,-324,-97,873,17,-95,60
790809,-352,-62,927,2,-16,77
790810,-346,-46,915,27,77,86
790811,-381,-45,946,85,87,106
790812,-375,-51,941,45,54,92
790813,-369,-40,935,25,1,59
790814,-364,-66,927,23,-39,30
790815,-358,-74,920,35,-20,42
790816,-368,-68,949,85,9,81
790817,-375,-57,952,107,32,104
790818,-378,-60,954,105,52,119
790819,-369,-61,948,112,48,112
790820,-372,-48,944,105,50,96
790821,-366,-46,928,75,74,88
790822,-368,-43,922,44,88,94
790823,-364,-53,926,69,79,87
790824,-383,-52,927,60,56,77
790825,-378,-43,925,58,32,67
790826,-376,-48,934,83,3,72
790827,-386,-48,945,86,-7,79
790828,-349,-32,896,121,7,114
790829,-405,-12,982,139,-12,104
790830,-361,-45,933,-68,77,-30
790831,-298,-12,910,4,137,-9
790832,-376,-41,1007,-7,212,-41
790833,-426,-78,864,-151,274,-103
790834,-299,-7,901,-126,302,-91
790835,-309,-58,817,49,187,14
790836,-443,-97,971,154,177,16
790837,-408,-59,911,-98,161,-75
790838,-368,-42,903,-109,128,-25
790839,-400,-55,942,4,16,-2
790840,-374,-44,897,-4,-18,16
790841,-373,-61,933,37,-40,7
790842,-374,-34,930,-20,9,-4
790843,-404,-47,975,-1,51,7
790844,-407,-33,939,-25,58,0
790845,-395,-62,934,-35,72,4
790846,-385,-62,918,-16,84,6
790847,-380,-40,926,-41,121,20
790848,-416,-3,998,-183,105,29
790849,-362,-39,1033,-384,112,-58
790850,-349,-18,792,-873,230,-149
790851,-328,-128,820,-303,135,-199
790852,-547,-107,1032,174,-4,-126
790853,-457,-122,986,-26,70,29
790854,-462,-87,991,110,-37,149
790855,-446,-81,1034,64,-58,195
790856,-324,-3,884,43,13,176
790857,-346,-64,902,119,37,102
790858,-366,-28,874,-35,142,42
790859,-378,-33,888,-49,166,-7
790860,-426,-63,925,-32,81,-56
790861,-414,-86,908,-60,20,-49
790862,-421,-90,935,16,-51,-8
790863,-412,-85,938,43,-82,32
790864,-408,-62,946,60,-75,59
790865,-398,-52,939,21,-36,56
790866,-395,-58,933,16,-2,32
790867,-391,-84,938,-9,23,0
790868,-408,-67,934,-16,81,4
790869,-419,-62,917,-20,88,16
790870,-412,-68,912,-13,51,11
790871,-406,-73,911,2,12,16
790872,-403,-57,922,9,0,24
790873,-400,-62,920,2,-8,12
790874,-390,-57,927,-16,7,0
790875,-414,-64,925,-21,14,-8
790876,-415,-65,930,-14,18,-1
790877,-417,-74,930,-7,8,7
790878,-414,-65,929,-7,-4,15
790879,-406,-68,914,-14,-22,5
790880,-399,-69,925,-5,-14,9
790881,-404,-62,920,-15,1,12
790882,-409,-62,915,-18,-3,5
790883,-412,-60,908,-23,-11,1
790884,-405,-64,918,-21,-14,1
790885,-403,-65,920,-23,-12,0
790886,-404,-65,922,-18,2,3
790887,-409,-65,920,-12,15,8
790888,-413,-71,929,-9,16,7
790889,-413,-68,934,-8,11,7
790890,-410,-75,931,-14,3,3
790891,-409,-68,919,-12,2,7
790892,-407,-69,915,-4,11,18
790893,-404,-62,909,-3,26,22
790894,-409,-67,914,-4,24,21
790895,-403,-61,916,-7,22,14
790896,-407,-79,922,0,10,14
790897,-409,-76,927,4,4,19
790898,-412,-68,921,2,1,21
790899,-410,-67,920,4,0,23
790900,-412,-66,924,-6,-1,12
790901,-411,-72,922,-6,-2,9
790902,-410,-66,917,-2,0,12
790903,-408,-72,922,2,3,17
790904,-409,-62,915,7,9,18
790905,-416,-66,915,4,19,22
790906,-416,-64,923,4,27,18
790907,-410,-67,917,0,30,17
790908,-419,-67,926,3,21,20
790909,-414,-71,919,2,11,21
790910,-407,-74,926,-2,-2,15
790911,-403,-71,918,11,0,16
790912,-413,-65,920,16,20,29
790913,-418,-54,919,0,34,31
790914,-407,-61,906,-21,30,14
790915,-403,-72,911,-21,22,-3
790916,-411,-81,915,-8,26,4
790917,-416,-71,920,0,25,19
790918,-417,-70,924,11,11,25
790919,-413,-65,919,7,0,20
790920,-410,-69,915,-1,0,14
790921,-410,-68,916,-5,12,11
790922,-409,-65,917,-7,23,9
790923,-414,-70,915,-7,26,11
790924,-419,-69,917,1,18,18
790925,-410,-69,918,3,9,18
790926,-416,-71,925,4,7,18
790927,-418,-74,923,4,21,19
790928,-417,-61,915,-2,30,17
790929,-421,-63,910,-7,22,14
790930,-421,-73,913,-5,9,12
790931,-415,-75,914,-2,2,14
790932,-413,-66,912,-2,4,13
790933,-414,-66,916,-5,7,11
790934,-422,-66,916,-7,1,8
790935,-423,-70,917,-1,-4,12
790936,-414,-62,911,-1,-4,14
790937,-421,-68,911,-1,1,11
790938,-418,-65,910,-9,1,11
790939,-414,-74,915,-7,-1,8
790940,-421,-72,913,-3,7,9
790941,-425,-65,913,-7,12,11
790942,-420,-67,918,-4,12,15
790943,-424,-74,912,-3,7,13
790944,-418,-74,916,-5,11,9
790945,-420,-75,912,-9,19,9
790946,-412,-72,908,-2,14,11
790947,-420,-66,914,6,4,15
790948,-418,-67,918,4,6,14
790949,-419,-70,914,-2,12,13
790950,-428,-71,917,-3,7,9
790951,-420,-75,918,-3,5,8
790952,-420,-68,920,-5,15,10
790953,-418,-71,916,-6,25,10
790954,-420,-70,914,-7,25,10
790955,-426,-69,913,-7,17,7
790956,-423,-72,907,-4,12,11
790957,-416,-76,903,0,4,11
790958,-424,-74,912,1,-3,12
790959,-426,-75,908,4,-9,12
790960,-420,-73,921,3,-11,11
790961,-426,-71,915,2,-4,14
790962,-425,-77,916,1,9,14
790963,-422,-67,915,-1,21,11
790964,-426,-67,912,-7,28,10
790965,-429,-70,904,-6,21,9
790966,-427,-71,908,-2,4,10
790967,-428,-73,907,2,-14,14
790968,-425,-67,916,6,-23,15
790969,-424,-76,917,4,-20,15
790970,-423,-75,915,0,-4,14
790971,-428,-71,918,-2,10,11
790972,-430,-71,908,-6,14,9
790973,-420,-71,916,-6,16,10
790974,-432,-72,914,-4,14,14
790975,-422,-66,901,-4,7,14
790976,-427,-74,903,-2,-1,11
790977,-423,-72,908,1,-3,10
790978,-426,-74,910,0,0,11
790979,-429,-72,910,0,-2,10
790980,-425,-74,920,-2,0,8
790981,-429,-74,913,-3,2,9
790982,-433,-72,913,-4,6,11
790983,-434,-74,917,-3,9,14
790984,-427,-75,906,-5,8,12
790985,-429,-74,909,-6,4,10
790986,-426,-80,914,-3,2,11
790987,-426,-76,907,-2,2,11
790988,-424,-77,916,-2,4,12
790989,-431,-75,915,-3,9,11
790990,-428,-73,914,-3,15,10
790991,-434,-75,912,-4,18,11
790992,-432,-75,910,-4,14,16
790993,-433,-72,903,-5,0,15
790994,-428,-73,905,-4,-14,11
790995,-424,-76,909,-2,-17,13
790996,-430,-76,908,0,-14,16
790997,-434,-72,909,-1,-11,16
790998,-428,-76,914,-4,-9,14
790999,-434,-76,921,-5,-10,13
791000,-425,-75,911,-4,-9,14
791001,-425,-75,906,-4,-9,16
791002,-436,-77,912,-4,-14,14
791003,-431,-80,909,-5,-15,15
791004,-430,-78,910,-2,-10,16
791005,-432,-74,910,-3,-8,16
791006,-430,-71,906,-6,-11,13
791007,-426,-73,914,-4,-13,12
791008,-426,-75,908,-3,-10,14
791009,-427,-73,906,-2,-10,15
791010,-431,-72,904,-2,-11,14
791011,-430,-73,908,-1,-14,14
791012,-435,-72,913,0,-14,16
791013,-431,-70,911,0,-15,17
791014,-427,-71,907,-1,-15,16
791015,-428,-73,907,-2,-14,16
791016,-428,-75,907,-3,-11,14
791017,-437,-76,902,-3,-10,16
791018,-433,-80,904,-2,-11,16
791019,-433,-75,905,-2,-15,16
791020,-429,-76,899,-2,-19,16
791021,-430,-76,911,0,-20,16
791022,-431,-72,912,-2,-15,16
791023,-437,-70,913,-2,-9,14
791024,-429,-76,905,-5,-9,13
791025,-434,-77,913,0,-14,14
791026,-428,-68,908,1,-15,20
791027,-433,-75,907,1,-18,21
791028,-434,-75,915,0,-18,16
791029,-430,-78,910,-1,-13,16
791030,-437,-75,904,-1,-9,18
791031,-431,-75,911,-2,-14,17
791032,-432,-76,909,1,-21,16
791033,-424,-78,909,4,-21,18
791034,-431,-73,908,2,-16,19
791035,-433,-79,910,4,-14,18
791036,-430,-70,907,0,-14,16
791037,-430,-74,910,-1,-14,15
791038,-425,-76,909,-1,-10,16
791039,-428,-79,906,0,-2,16
791040,-426,-74,907,-1,7,16
791041,-431,-74,910,-1,10,15
791042,-430,-76,914,-3,13,13
791043,-432,-73,910,-4,12,16
791044,-433,-76,905,1,2,17
791045,-433,-73,904,0,-6,17
791046,-429,-79,904,3,-10,15
791047,-431,-78,914,7,-6,16
791048,-434,-73,912,4,4,18
791049,-434,-80,906,3,4,18
791050,-429,-83,907,2,-4,18
791051,-436,-74,910,3,-10,21
791052,-428,-78,906,6,-10,22
791053,-437,-71,907,0,-2,23
791054,-435,-75,907,-2,-1,18
791055,-434,-79,902,-7,-2,13
791056,-431,-81,909,-4,0,16
791057,-430,-80,900,-5,4,16
791058,-431,-78,902,0,5,18
791059,-434,-81,906,0,-3,18
791060,-434,-79,911,7,-16,18
791061,-436,-75,908,11,-24,19
791062,-435,-71,915,8,-26,18
791063,-437,-81,918,2,-16,18
791064,-429,-80,913,-3,-9,17
791065,-436,-74,914,-1,-3,16
791066,-430,-77,905,-4,1,17
791067,-431,-79,899,-7,2,13
791068,-428,-76,894,-9,-4,8
791069,-427,-83,899,-3,-4,11
791070,-430,-79,898,2,0,17
791071,-437,-75,905,4,0,15
791072,-441,-72,908,7,-3,14
791073,-439,-79,906,5,-5,14
791074,-437,-77,911,4,-4,14
791075,-438,-72,913,4,-1,16
791076,-434,-79,909,7,4,19
791077,-434,-75,912,9,2,22
791078,-442,-72,907,7,-10,20
791079,-435,-78,905,5,-21,18
791080,-428,-75,902,6,-20,16
791081,-437,-76,905,4,-14,16
791082,-433,-82,908,4,-13,17
791083,-439,-81,916,6,-18,16
791084,-438,-80,904,5,-22,17
791085,-427,-81,904,5,-23,18
791086,-438,-75,902,4,-18,18
791087,-434,-83,905,3,-9,16
791088,-436,-78,903,2,-6,18
791089,-441,-81,910,3,-14,17
791090,-442,-78,907,5,-28,17
791091,-429,-79,913,9,-33,18
791092,-436,-81,908,6,-32,21
791093,-437,-76,913,0,-21,18
791094,-439,-76,913,-5,-17,14
791095,-439,-72,904,-5,-18,14
791096,-437,-78,900,-3,-22,17
791097,-433,-77,900,2,-32,18
791098,-435,-74,900,3,-38,19
791099,-429,-75,906,4,-42,18
791100,-431,-77,910,2,-46,15
791101,-427,-81,908,6,-46,16
791102,-428,-79,909,7,-42,16
791103,-438,-75,907,8,-33,20
791104,-438,-67,913,7,-25,21
791105,-435,-72,909,0,-21,16
791106,-432,-81,902,-1,-11,11
791107,-432,-77,909,-2,5,14
791108,-438,-81,905,1,9,18
791109,-435,-78,896,2,-4,18
791110,-431,-75,902,5,-25,15
791111,-429,-74,904,9,-35,13
791112,-427,-78,916,16,-25,13
791113,-433,-77,917,7,5,16
791114,-439,-73,915,-2,30,12
791115,-440,-73,899,-7,35,8
791116,-435,-79,899,-4,30,7
791117,-434,-77,891,4,19,12
791118,-441,-80,894,14,2,15
791119,-442,-75,901,18,-14,14
791120,-442,-81,909,18,-23,14
791121,-440,-77,913,16,-21,15
791122,-434,-81,911,11,-11,16
791123,-433,-79,911,8,2,15
791124,-433,-79,907,0,16,14
791125,-439,-74,897,-7,24,12
791126,-440,-79,894,-1,21,14
791127,-434,-81,901,-1,7,11
791128,-437,-74,903,4,-7,13
791129,-439,-79,898,7,-12,16
791130,-442,-75,914,10,-9,16
791131,-437,-78,912,5,4,18
791132,-447,-79,912,4,12,16
791133,-439,-77,906,0,9,16
791134,-442,-77,903,2,0,18
791135,-439,-78,905,6,-8,23
791136,-435,-79,898,7,-19,23
791137,-438,-81,899,7,-25,20
791138,-435,-81,905,2,-19,16
791139,-441,-80,902,1,-10,16
791140,-440,-79,906,1,-4,17
791141,-441,-78,906,1,-7,18
791142,-440,-80,909,-1,-13,16
791143,-437,-74,902,2,-17,18
791144,-433,-77,903,7,-16,23
791145,-438,-76,903,5,-11,23
791146,-439,-81,899,-1,-4,14
791147,-440,-83,903,-7,0,10
791148,-446,-82,898,-1,0,17
791149,-442,-80,907,7,-16,24
791150,-436,-79,905,7,-34,22
791151,-433,-74,905,5,-37,19
791152,-433,-78,902,-1,-17,15
791153,-439,-73,910,-2,9,16
791154,-441,-74,910,-9,19,16
791155,-448,-75,903,-8,2,13
791156,-437,-87,898,-2,-24,15
791157,-439,-78,898,9,-36,25
791158,-440,-74,900,12,-38,25
791159,-436,-76,907,8,-32,21
791160,-438,-80,909,3,-23,17
791161,-442,-78,913,2,-18,15
791162,-440,-77,905,2,-12,18
791163,-440,-74,903,7,-16,21
791164,-441,-82,910,2,-15,21
791165,-439,-75,900,2,-16,21
791166,-444,-80,902,0,-22,19
791167,-439,-78,908,0,-32,15
791168,-435,-84,909,5,-37,16
791169,-438,-77,912,5,-23,21
791170,-445,-73,903,0,0,20
791171,-439,-80,899,-6,2,13
791172,-438,-83,893,-2,-8,12
791173,-445,-85,905,7,-30,19
791174,-440,-81,905,21,-46,26
791175,-444,-79,903,16,-46,25
791176,-442,-80,921,7,-32,18
791177,-443,-82,918,-3,-14,11
791178,-443,-80,907,-4,0,17
791179,-441,-75,898,0,-4,24
791180,-432,-77,902,2,-28,20
791181,-435,-80,902,2,-39,13
791182,-434,-80,902,2,-28,16
791183,-441,-81,911,6,-14,21
791184,-442,-73,908,0,-8,19
791185,-441,-81,897,-7,-23,11
791186,-432,-83,900,0,-42,10
791187,-433,-82,899,5,-33,18
791188,-432,-79,905,11,-14,25
791189,-447,-73,905,0,-8,21
791190,-449,-78,908,-2,-25,14
791191,-444,-81,908,0,-49,14
791192,-436,-81,912,8,-59,24
791193,-433,-79,907,11,-59,32
791194,-430,-71,903,11,-57,32
791195,-432,-71,899,5,-50,21
791196,-436,-79,907,-6,-39,16
791197,-448,-82,901,-7,-34,12
791198,-444,-86,898,-4,-40,14
791199,-447,-86,906,9,-56,22
791200,-434,-81,905,15,-68,33
791201,-431,-77,909,19,-74,37
791202,-431,-71,916,16,-66,30
791203,-428,-81,911,0,-42,18
791204,-431,-73,907,-7,-18,11
791205,-435,-83,902,-2,-14,14
791206,-435,-83,901,0,-23,16
791207,-432,-80,903,11,-44,21
791208,-431,-79,898,16,-55,27
791209,-428,-77,906,19,-51,28
791210,-436,-76,908,9,-33,21
791211,-432,-80,911,2,-15,15
791212,-433,-79,916,-2,0,12
791213,-437,-81,906,0,4,17
791214,-437,-79,908,4,-4,21
791215,-435,-77,907,3,-18,18
791216,-435,-79,902,-2,-21,14
791217,-432,-81,898,0,-22,14
791218,-437,-80,906,6,-25,18
791219,-439,-77,910,9,-28,21
791220,-440,-81,905,5,-23,19
791221,-441,-81,909,2,-23,18
791222,-439,-77,912,3,-28,20
791223,-438,-73,913,9,-39,25
791224,-428,-77,908,7,-45,25
791225,-435,-75,902,4,-45,24
791226,-430,-79,905,7,-42,24
791227,-434,-75,911,6,-39,22
791228,-443,-75,908,3,-37,20
791229,-443,-78,916,2,-43,14
791230,-433,-82,914,-3,-47,11
791231,-422,-81,906,9,-59,28
791232,-425,-73,907,20,-63,44
791233,-427,-74,912,14,-44,36
791234,-429,-75,899,-7,-19,16
791235,-436,-82,911,-14,-7,9
791236,-439,-87,906,-7,-14,9
791237,-433,-82,903,0,-30,17
791238,-436,-66,906,25,-50,35
791239,-439,-71,910,24,-58,34
791240,-434,-80,912,12,-55,20
791241,-429,-81,912,3,-55,16
791242,-422,-72,906,16,-65,29
791243,-415,-73,911,26,-65,41
791244,-428,-74,910,20,-43,35
791245,-434,-77,913,1,-14,17
791246,-437,-83,913,-7,0,9
791247,-444,-79,911,-2,-14,15
791248,-442,-79,902,11,-44,26
791249,-432,-81,910,30,-68,39
791250,-434,-75,912,35,-70,44
791251,-420,-67,913,35,-58,41
791252,-422,-69,913,29,-46,38
791253,-423,-75,905,20,-34,28
791254,-430,-77,910,9,-22,21
791255,-429,-74,914,2,-22,15
791256,-435,-77,908,4,-35,14
791257,-430,-74,906,9,-42,18
791258,-431,-73,911,12,-40,25
791259,-430,-79,905,24,-40,28
791260,-434,-71,902,37,-23,34
791261,-437,-73,916,49,1,46
791262,-428,-83,932,19,-28,23
791263,-427,-75,907,4,-58,12
791264,-422,-78,902,13,-71,20
791265,-413,-79,905,26,-72,29
791266,-418,-75,906,43,-67,45
791267,-440,-71,910,44,-51,42
791268,-450,-71,914,9,-20,21
791269,-431,-80,923,-3,-37,5
791270,-397,-80,904,14,-92,15
791271,-398,-70,899,61,-116,61
791272,-407,-57,907,72,-81,81
791273,-428,-60,924,60,-31,57
791274,-431,-68,927,0,5,5
791275,-430,-81,919,-26,9,-12
791276,-426,-82,918,-8,-12,8
791277,-420,-73,909,21,-36,35
791278,-416,-63,908,25,-42,43
791279,-411,-60,905,21,-37,33
791280,-416,-68,911,15,-24,25
791281,-428,-76,914,6,-14,12
791282,-434,-77,911,-9,-2,0
791283,-435,-81,916,-5,-1,9
791284,-423,-78,912,14,-24,27
791285,-415,-68,912,25,-58,37
791286,-421,-67,914,25,-68,35
791287,-411,-69,914,4,-48,16
791288,-408,-74,919,-4,-11,7
791289,-425,-79,922,-5,17,14
791290,-435,-73,911,-1,27,21
791291,-432,-71,914,-2,16,17
791292,-426,-66,907,-4,-4,16
791293,-423,-75,901,4,-23,16
791294,-420,-72,902,9,-23,25
791295,-420,-71,914,14,-7,25
791296,-420,-71,913,12,17,25
791297,-431,-65,908,11,6,27
791298,-431,-78,911,3,-11,14
791299,-424,-77,917,7,-9,12
791300,-440,-75,914,21,-20,23
791301,-441,-75,920,30,-36,32
791302,-425,-63,922,27,-49,33
791303,-432,-71,915,20,-47,29
791304,-428,-77,913,7,-25,23
791305,-423,-73,914,7,-6,27
791306,-425,-72,903,8,-11,32
791307,-430,-69,911,5,-21,23
791308,-423,-74,905,0,-19,16
791309,-429,-70,905,7,-21,20
791310,-438,-80,909,13,-30,28
791311,-414,-71,918,15,-38,28
791312,-420,-71,916,21,-43,27
791313,-421,-78,914,22,-39,29
791314,-429,-76,921,9,-9,23
791315,-437,-54,879,4,30,18
791316,-425,-76,940,32,74,41
791317,-429,-78,919,10,23,18
791318,-419,-73,899,0,-7,15
791319,-421,-79,904,13,-25,25
791320,-425,-72,901,18,-40,26
791321,-427,-74,907,14,-41,22
791322,-435,-68,908,16,-28,22
791323,-433,-67,923,21,-28,24
791324,-434,-72,926,21,-42,25
791325,-425,-73,920,11,-51,21
791326,-417,-73,905,7,-40,18
791327,-417,-68,902,11,-20,23
791328,-427,-62,905,14,-11,23
791329,-427,-66,920,14,-19,20
791330,-435,-67,916,14,-27,18
791331,-428,-71,921,18,-31,24
791332,-424,-62,919,21,-42,26
791333,-423,-61,909,16,-49,25
791334,-418,-64,907,18,-37,19
791335,-429,-75,910,18,-29,21
791336,-421,-75,916,18,-35,16
791337,-426,-74,913,26,-46,21
791338,-424,-65,918,32,-51,29
791339,-419,-64,918,32,-57,31
791340,-421,-71,917,28,-53,31
791341,-418,-63,917,23,-42,30
791342,-415,-58,916,13,-28,25
791343,-413,-63,918,2,-16,14
791344,-419,-79,910,2,-9,11
791345,-426,-69,906,2,-7,16
791346,-425,-68,901,13,-24,21
791347,-425,-71,902,21,-46,24
791348,-415,-69,913,26,-58,25
791349,-417,-63,919,25,-44,24
791350,-418,-69,925,18,-20,23
791351,-426,-67,924,12,-4,20
791352,-422,-60,922,2,0,17
791353,-427,-69,925,0,4,15
791354,-424,-71,908,-3,8,14
791355,-421,-71,904,-3,4,15
791356,-417,-70,904,5,-8,16
791357,-417,-71,910,15,-18,22
791358,-420,-69,909,16,-25,24
791359,-424,-64,916,18,-25,23
791360,-425,-63,922,10,-25,19
791361,-426,-67,916,8,-32,17
791362,-421,-63,920,3,-21,14
791363,-416,-72,921,2,-4,16
791364,-423,-60,909,6,-1,21
791365,-430,-59,904,3,-18,19
791366,-425,-69,904,2,-36,15
791367,-415,-72,908,9,-42,18
791368,-425,-66,918,15,-32,24
791369,-426,-61,922,13,-18,26
791370,-420,-65,906,4,-14,21
791371,-422,-65,911,-1,-18,11
791372,-422,-73,907,-3,-15,8
791373,-416,-75,914,4,-1,17
791374,-435,-66,922,10,7,25
791375,-432,-66,916,16,-5,27
791376,-427,-62,912,7,-29,20
791377,-420,-71,912,1,-43,14
791378,-421,-76,913,7,-39,16
791379,-424,-73,924,7,-17,21
791380,-435,-64,917,12,-9,28
791381,-427,-60,909,8,-23,28
791382,-421,-58,915,-4,-42,19
791383,-418,-72,906,-9,-39,7
791384,-415,-77,913,-8,-11,7
791385,-416,-71,913,6,6,22
791386,-429,-62,912,14,0,27
791387,-426,-62,914,11,-22,24
791388,-422,-70,912,5,-44,18
791389,-418,-67,914,12,-53,22
791390,-417,-69,917,14,-46,25
791391,-424,-61,908,8,-28,24
791392,-417,-64,917,1,-13,18
791393,-417,-61,907,-9,2,9
791394,-421,-75,914,-9,17,7
791395,-428,-70,904,0,17,14
791396,-431,-60,907,14,-14,25
791397,-428,-69,915,24,-54,28
791398,-418,-66,923,18,-56,25
791399,-416,-63,924,10,-25,20
791400,-419,-65,923,-4,12,16
791401,-423,-67,915,-11,30,9
791402,-427,-70,914,-17,37,4
791403,-429,-65,908,-4,18,13
791404,-427,-75,906,5,-4,18
791405,-426,-73,910,7,-20,23
791406,-426,-64,903,15,-37,23
791407,-420,-65,912,19,-44,23
791408,-425,-62,919,17,-28,24
791409,-430,-63,926,6,-9,19
791410,-423,-65,918,-2,-8,14
791411,-423,-73,915,-1,-4,12
791412,-421,-67,912,0,14,16
791413,-431,-67,914,4,14,20
791414,-420,-56,910,-1,0,17
791415,-418,-68,908,-2,-14,13
791416,-426,-76,914,1,-20,12
791417,-418,-68,911,6,-25,21
791418,-423,-60,912,16,-26,28
791419,-427,-67,919,16,-22,23
791420,-429,-62,925,6,-11,18
791421,-429,-67,921,-6,-1,11
791422,-426,-64,907,-8,7,9
791423,-423,-71,914,-2,12,16
791424,-424,-61,914,3,14,20
791425,-424,-63,900,0,6,18
791426,-422,-70,903,0,-7,14
791427,-417,-69,912,6,-14,14
791428,-430,-69,921,13,-11,21
791429,-431,-69,919,11,-9,21
791430,-428,-62,916,1,-6,15
791431,-429,-67,909,-1,-6,14
791432,-420,-67,910,0,-9,15
791433,-420,-71,912,4,-3,16
791434,-430,-64,920,6,4,18
791435,-435,-63,910,2,1,18
791436,-433,-69,915,3,-15,14
791437,-429,-66,902,5,-30,19
791438,-419,-65,907,12,-42,23
791439,-420,-65,917,12,-37,23
791440,-419,-62,917,5,-10,17
791441,-424,-62,914,-2,14,12
791442,-429,-69,917,0,15,11
791443,-426,-70,914,3,9,16
791444,-432,-64,912,4,-2,19
791445,-426,-69,909,11,-27,21
791446,-420,-63,912,11,-32,20
791447,-424,-70,912,14,-10,21
791448,-439,-61,915,9,11,19
791449,-438,-60,916,0,1,14
791450,-431,-67,915,-9,-18,9
791451,-418,-69,912,-8,-21,9
791452,-414,-71,900,-1,1,14
791453,-414,-61,898,9,28,22
791454,-433,-60,900,13,30,23
791455,-439,-64,913,8,1,15
791456,-446,-72,921,7,-39,7
791457,-430,-74,931,11,-61,12
791458,-429,-70,927,18,-45,27
791459,-428,-58,923,14,-7,32
791460,-428,-61,912,-5,19,18
791461,-426,-63,906,-24,28,3
791462,-433,-72,892,-21,24,3
791463,-431,-69,891,-8,2,11
791464,-426,-67,897,10,-33,20
791465,-423,-62,910,22,-58,25
791466,-422,-68,912,25,-53,28
791467,-427,-62,925,16,-30,23
791468,-434,-64,919,2,-10,14
791469,-423,-73,917,-3,-2,13
791470,-434,-62,915,2,2,21
791471,-428,-59,912,5,-3,21
791472,-429,-63,901,-2,-13,12
791473,-422,-71,911,-7,-12,9
791474,-426,-74,907,3,-8,15
791475,-429,-65,917,11,-9,23
791476,-431,-63,919,14,-21,23
791477,-426,-67,914,6,-32,16
791478,-430,-70,915,1,-28,12
791479,-430,-69,917,5,-7,14
791480,-434,-62,919,6,14,21
791481,-436,-68,911,0,16,17
791482,-428,-63,906,-9,2,11
791483,-422,-73,903,-4,-14,14
791484,-424,-73,898,9,-22,22
791485,-434,-58,910,18,-25,27
791486,-431,-67,916,14,-25,23
791487,-440,-67,922,5,-26,16
791488,-441,-69,926,0,-32,12
791489,-439,-69,925,2,-35,18
791490,-425,-61,912,7,-34,25
791491,-421,-61,904,5,-23,25
791492,-419,-58,905,-2,-9,16
791493,-420,-70,900,-11,2,8
791494,-429,-71,904,-7,0,9
791495,-433,-72,909,4,-21,16
791496,-431,-68,917,19,-46,25
791497,-424,-67,919,23,-56,30
791498,-423,-60,918,7,-45,21
791499,-419,-66,914,-8,-19,9
791500,-418,-69,907,-10,9,9
791501,-428,-67,906,-4,23,15
791502,-427,-61,904,0,14,16
791503,-433,-69,909,2,-11,14
791504,-432,-70,905,4,-28,18
791505,-431,-66,914,9,-28,21
791506,-427,-64,918,9,-21,18
791507,-431,-66,917,0,-10,18
791508,-422,-65,913,-5,-1,14
791509,-427,-71,906,-11,7,8
791510,-426,-68,907,-5,16,12
791511,-436,-72,905,-2,18,14
791512,-429,-64,906,-1,11,14
791513,-428,-66,908,3,-5,14
791514,-435,-70,908,16,-22,20
791515,-440,-67,913,20,-37,26
791516,-430,-61,918,22,-50,25
791517,-423,-72,922,16,-42,24
791518,-426,-65,923,7,-13,18
791519,-428,-69,922,0,19,17
791520,-441,-64,912,-4,30,16
791521,-434,-66,899,-3,9,14
791522,-428,-71,901,1,-18,16
791523,-428,-75,908,11,-38,18
791524,-435,-71,913,9,-34,21
791525,-435,-66,912,2,-30,21
791526,-423,-68,915,4,-39,20
791527,-420,-60,917,0,-28,18
791528,-426,-61,908,-4,1,14
791529,-439,-75,906,-8,20,9
791530,-438,-75,906,-9,15,10
791531,-426,-66,903,7,-7,18
791532,-441,-70,910,18,-25,25
791533,-431,-66,911,15,-34,25
791534,-430,-67,915,8,-36,21
791535,-430,-71,911,6,-31,18
791536,-430,-65,912,1,-22,16
791537,-432,-66,913,2,-19,18
791538,-431,-66,913,2,-25,19
791539,-430,-62,911,4,-33,18
791540,-426,-64,907,4,-32,19
791541,-427,-64,906,2,-23,18
791542,-423,-67,912,2,-15,15
791543,-424,-73,905,4,-11,18
791544,-432,-61,906,11,-15,23
791545,-431,-64,914,7,-27,22
791546,-427,-73,913,4,-37,17
791547,-422,-75,912,2,-30,17
791548,-418,-70,908,5,-13,19
791549,-431,-68,912,8,1,19
791550,-432,-68,911,5,3,18
791551,-435,-63,919,1,-7,16
791552,-429,-73,912,1,-18,14
791553,-428,-69,911,6,-20,18
791554,-435,-66,909,7,-17,19
791555,-430,-64,912,1,-12,16
791556,-434,-71,904,-5,-7,10
791557,-428,-68,903,-5,-1,11
791558,-433,-68,907,2,3,16
791559,-433,-63,911,4,2,18
791560,-430,-67,905,2,0,16
791561,-433,-69,908,12,-19,19
791562,-434,-73,909,3,-15,15
791563,-443,-71,914,7,-2,16
791564,-436,-66,923,3,-9,21
791565,-426,-60,914,11,-37,23
791566,-425,-62,909,2,-33,19
791567,-419,-69,901,0,-16,16
791568,-422,-67,897,-2,0,14
791569,-435,-72,908,2,14,18
791570,-442,-70,911,-9,18,9
791571,-438,-75,906,-8,3,9
791572,-435,-68,901,16,-23,30
791573,-435,-60,914,25,-45,34
791574,-427,-65,913,2,-44,15
791575,-416,-78,916,-7,-19,9
791576,-427,-73,915,4,11,20
791577,-437,-65,911,8,21,24
791578,-436,-61,905,0,11,16
791579,-436,-68,904,-5,-4,10
791580,-430,-76,904,1,-17,14
791581,-431,-67,913,14,-18,22
791582,-429,-63,915,14,-7,22
791583,-429,-70,913,4,2,18
791584,-438,-63,915,3,1,16
791585,-432,-68,911,3,-4,16
791586,-432,-70,911,0,-3,16
791587,-436,-63,898,1,-3,18
791588,-430,-70,911,2,-9,18
791589,-433,-74,905,2,-11,16
791590,-433,-69,907,2,-7,17
791591,-434,-72,905,2,-8,18
791592,-434,-68,911,4,-16,18
791593,-427,-69,910,8,-18,20
791594,-433,-70,913,8,-16,23
791595,-434,-68,906,4,-17,19
791596,-429,-71,913,1,-14,16
791597,-435,-69,907,4,-14,18
791598,-430,-69,919,4,-14,20
791599,-423,-60,906,2,-15,18
791600,-432,-60,909,4,-11,19
791601,-438,-61,902,1,-4,16
791602,-439,-82,911,-9,0,6
791603,-435,-79,911,-5,0,7
791604,-439,-66,907,21,-9,31
791605,-439,-53,918,26,-25,35
791606,-437,-60,908,4,-32,17
791607,-429,-75,906,-17,-23,2
791608,-428,-84,903,-7,-4,9
791609,-443,-61,901,9,7,27
791610,-432,-58,905,16,-4,30
791611,-428,-60,906,4,-18,16
791612,-434,-73,906,-2,-24,9
791613,-440,-74,909,7,-21,19
791614,-432,-71,911,14,-18,25
791615,-432,-62,914,13,-14,24
791616,-434,-64,907,0,-10,15
791617,-432,-71,914,-9,-11,9
791618,-432,-73,896,-6,-10,13
791619,-433,-69,894,7,-9,23
791620,-430,-60,898,13,-14,24
791621,-436,-64,906,9,-23,21
791622,-434,-72,909,0,-26,15
791623,-436,-69,920,0,-14,14
791624,-427,-67,911,2,4,21
791625,-436,-59,913,1,7,21
791626,-428,-61,900,-9,8,12
791627,-433,-71,897,-4,6,11
791628,-434,-71,899,10,-2,16
791629,-442,-64,904,19,-14,24
791630,-430,-65,921,23,-26,26
791631,-430,-66,921,19,-28,19
791632,-434,-60,917,12,-18,16
791633,-437,-66,914,8,-4,16
791634,-430,-76,913,1,16,16
791635,-427,-71,908,-4,29,19
791636,-443,-67,902,-4,25,20
791637,-447,-66,897,4,4,23
791638,-437,-69,910,0,-14,18
791639,-432,-74,912,4,-25,16
791640,-431,-66,893,9,-20,23
791641,-431,-60,897,11,-11,27
791642,-434,-68,916,3,-2,16
791643,-435,-71,913,2,3,10
791644,-442,-67,912,8,6,18
791645,-443,-64,908,2,2,21
791646,-437,-64,900,-2,-8,16
791647,-420,-73,897,-3,-18,13
791648,-426,-74,896,9,-16,22
791649,-445,-74,913,18,-7,28
791650,-445,-59,924,18,4,30
791651,-458,-61,909,2,-5,23
791652,-441,-73,912,-2,-25,18
791653,-443,-69,910,2,-24,20
791654,-432,-69,915,7,-2,23
791655,-435,-64,907,4,10,21
791656,-440,-70,910,0,4,14
791657,-438,-67,899,3,-14,14
791658,-440,-71,908,10,-28,20
791659,-425,-61,920,8,-30,21
791660,-437,-59,909,1,-21,18
791661,-441,-67,899,-8,-2,12
791662,-448,-64,900,-9,13,10
791663,-441,-67,897,-2,12,16
791664,-444,-69,903,3,-17,17
791665,-438,-73,902,9,-54,18
791666,-426,-73,907,14,-70,22
791667,-431,-67,912,14,-40,27
791668,-428,-56,917,4,8,20
791669,-442,-64,917,-9,35,8
791670,-441,-75,904,-17,31,2
791671,-443,-75,899,-1,6,14
791672,-452,-70,904,20,-25,30
791673,-442,-65,907,24,-54,33
791674,-438,-65,910,14,-63,25
791675,-426,-72,908,4,-50,18
791676,-442,-69,912,7,-25,18
791677,-440,-65,909,-2,4,15
791678,-442,-68,911,-7,14,14
791679,-445,-71,903,-5,3,12
791680,-444,-71,891,4,-21,16
791681,-447,-71,899,17,-38,24
791682,-440,-61,902,15,-43,21
791683,-439,-63,910,15,-52,18
791684,-433,-70,914,13,-46,19
791685,-433,-63,914,13,-19,25
791686,-439,-58,908,2,6,20
791687,-440,-64,904,-16,14,6
791688,-438,-78,898,-18,13,4
791689,-447,-74,899,0,0,16
791690,-440,-65,897,14,-23,25
791691,-436,-66,897,14,-47,24
791692,-429,-60,908,9,-54,18
791693,-435,-66,911,11,-42,18
791694,-432,-68,916,11,-18,21
791695,-443,-67,916,5,-2,18
791696,-444,-65,910,-2,0,16
791697,-439,-70,898,-5,-7,14
791698,-437,-70,897,-2,-12,15
791699,-436,-65,901,1,-20,15
791700,-438,-72,904,9,-27,16
791701,-438,-69,908,14,-29,21
791702,-441,-68,916,13,-28,22
791703,-442,-63,918,7,-27,19
791704,-435,-70,914,2,-23,16
791705,-429,-69,910,3,-12,18
791706,-436,-67,908,5,0,21
791707,-440,-68,903,3,-2,19
791708,-440,-68,897,0,-19,15
791709,-437,-75,897,5,-37,16
791710,-439,-66,910,13,-42,23
791711,-438,-57,905,13,-42,25
791712,-433,-66,912,3,-39,15
791713,-432,-70,908,-4,-22,8
791714,-436,-71,909,0,10,18
791715,-447,-62,899,4,17,21
791716,-445,-60,906,3,-12,15
791717,-432,-71,903,0,-35,11
791718,-428,-75,903,4,-25,19
791719,-438,-65,907,17,-3,28
791720,-442,-56,912,14,-5,22
791721,-439,-72,905,1,-19,11
791722,-443,-71,908,6,-28,20
791723,-444,-69,912,18,-36,28
791724,-435,-67,906,19,-44,27
791725,-430,-61,907,10,-44,21
791726,-436,-66,914,6,-32,21
791727,-429,-58,911,-3,-16,16
791728,-428,-67,895,-16,-6,7
791729,-432,-76,893,-10,0,7
791730,-441,-72,902,2,1,15
791731,-445,-68,909,9,-17,18
791732,-442,-71,913,9,-29,18
791733,-438,-64,913,7,-23,19
791734,-438,-65,914,3,-15,18
791735,-441,-70,909,0,-9,18
791736,-433,-67,908,-1,-5,16
791737,-438,-66,899,-5,-8,15
791738,-436,-71,904,2,-27,16
791739,-435,-75,914,8,-37,16
791740,-437,-62,896,14,-32,19
791741,-431,-69,911,11,-22,18
791742,-434,-60,908,4,-22,15
791743,-444,-71,901,7,-25,16
791744,-432,-69,906,7,-31,18
791745,-441,-72,916,9,-28,23
791746,-439,-57,914,11,-12,26
791747,-447,-63,909,-1,-9,16
791748,-436,-77,899,-11,-16,8
791749,-439,-75,904,-2,-19,16
791750,-444,-66,903,6,-19,25
791751,-439,-66,908,11,-37,26
791752,-432,-64,902,3,-57,19
791753,-425,-71,901,3,-64,15
791754,-422,-67,904,6,-37,18
791755,-428,-69,905,13,2,22
791756,-437,-64,901,2,18,14
791757,-441,-70,911,0,0,11
791758,-444,-69,912,8,-22,17
791759,-436,-66,916,21,-26,27
791760,-439,-63,913,22,-17,29
791761,-434,-62,919,0,-9,17
791762,-445,-62,910,-9,2,9
791763,-435,-69,894,-8,4,10
791764,-439,-72,895,2,-5,16
791765,-439,-67,899,12,-23,23
791766,-439,-63,907,15,-32,24
791767,-440,-61,910,6,-30,20
791768,-436,-68,910,2,-26,16
791769,-436,-68,905,3,-22,15
791770,-435,-68,906,7,-16,19
791771,-439,-66,906,7,-13,21
791772,-436,-62,904,3,-11,18
791773,-442,-66,903,0,-16,15
791774,-440,-61,903,-1,-26,16
791775,-437,-70,905,2,-34,17
791776,-434,-66,902,9,-32,21
791777,-437,-66,906,14,-27,24
791778,-445,-55,908,9,-27,22
791779,-434,-66,911,-7,-28,12
791780,-433,-73,912,-7,-18,10
791781,-436,-75,905,-6,9,12
791782,-439,-66,895,4,13,21
791783,-438,-59,897,5,-18,18
791784,-432,-74,905,6,-45,16
791785,-433,-73,907,11,-33,21
791786,-440,-68,914,14,-23,23
791787,-442,-65,917,13,-21,23
791788,-443,-60,917,5,-18,19
791789,-435,-70,911,-1,-11,15
791790,-436,-70,920,-1,-1,18
791791,-435,-64,904,-2,-2,21
791792,-436,-66,894,-5,-16,13
791793,-431,-77,898,-4,-23,8
791794,-430,-76,896,10,-14,19
791795,-441,-61,910,16,-4,25
791796,-441,-58,903,3,-20,16
791797,-438,-75,905,2,-35,11
791798,-429,-75,906,10,-18,17
791799,-440,-68,910,21,-4,28
791800,-449,-60,921,14,-10,23
791801,-444,-63,911,0,-28,13
791802,-433,-72,907,0,-36,13
791803,-430,-68,903,13,-34,23
791804,-434,-57,904,11,-18,27
791805,-438,-59,899,-4,-4,14
791806,-435,-74,897,-12,0,7
791807,-437,-76,905,0,-8,14
791808,-445,-67,907,13,-30,24
791809,-437,-69,914,14,-46,23
791810,-427,-69,916,8,-37,19
791811,-428,-66,912,2,-12,17
791812,-435,-66,912,-7,5,15
791813,-432,-73,897,-7,4,11
791814,-436,-73,906,-4,-14,14
791815,-436,-70,904,4,-32,19
791816,-431,-72,904,11,-42,23
791817,-433,-58,910,10,-41,21
791818,-426,-68,917,2,-21,15
791819,-436,-67,911,2,2,16
791820,-442,-64,906,0,9,17
791821,-441,-68,905,-3,-4,14
791822,-432,-73,898,-1,-26,13
791823,-431,-69,905,9,-38,20
791824,-436,-62,911,17,-32,27
791825,-442,-59,915,11,-19,22
791826,-441,-66,916,-3,-13,12
791827,-434,-70,906,-4,-12,10
791828,-438,-71,908,8,-14,21
791829,-444,-62,912,17,-17,28
791830,-440,-62,905,9,-21,23
791831,-432,-71,908,-5,-21,11
791832,-430,-79,900,-5,-9,10
791833,-443,-72,906,4,1,20
791834,-443,-58,902,11,-5,24
791835,-434,-70,903,2,-28,17
791836,-430,-77,902,2,-44,14
791837,-437,-68,904,11,-32,21
791838,-434,-58,924,20,-17,27
791839,-437,-60,923,4,-2,17
791840,-443,-70,906,-7,3,8
791841,-438,-77,903,-10,-2,9
791842,-435,-77,901,3,-14,18
791843,-438,-60,900,14,-21,25
791844,-432,-60,903,11,-26,20
791845,-443,-68,904,0,-24,12
791846,-440,-75,906,2,-15,16
791847,-439,-64,916,7,-12,20
791848,-442,-70,908,6,-17,19
791849,-435,-69,903,2,-20,18
791850,-433,-68,904,0,-13,17
791851,-439,-65,902,4,-8,18
791852,-441,-64,900,3,-8,16
791853,-443,-71,908,0,-17,15
791854,-435,-71,906,3,-26,16
791855,-434,-69,904,9,-30,22
791856,-432,-65,910,9,-28,22
791857,-438,-63,907,2,-23,17
791858,-438,-69,906,-1,-17,14
791859,-434,-65,897,1,-13,17
791860,-452,-66,907,9,-21,23
791861,-436,-60,906,-4,-13,20
791862,-446,-66,904,5,-28,21
791863,-439,-72,904,-1,-39,16
791864,-433,-71,904,8,-31,23
791865,-436,-62,909,13,-20,25
791866,-438,-67,907,7,-23,18
791867,-433,-66,905,-2,-25,14
791868,-433,-70,909,0,-23,15
791869,-432,-64,909,7,-18,21
791870,-433,-60,910,6,-13,21
791871,-430,-61,902,1,-9,16
791872,-437,-65,902,0,-5,15
791873,-437,-67,896,3,-10,17
791874,-447,-66,907,9,-23,18
791875,-441,-71,909,8,-30,18
791876,-434,-68,911,10,-31,20
791877,-430,-65,913,11,-30,23
791878,-436,-61,907,7,-18,21
791879,-431,-65,907,0,0,14
791880,-441,-74,903,-6,12,10
791881,-442,-70,906,-2,9,13
791882,-445,-69,902,7,-8,19
791883,-443,-65,902,9,-30,21
791884,-435,-69,910,10,-42,20
791885,-436,-67,910,7,-31,18
791886,-441,-65,911,9,-15,21
791887,-440,-59,911,6,-13,21
791888,-437,-60,907,-1,-16,13
791889,-436,-68,905,-4,-11,11
791890,-436,-68,900,0,-2,16
791891,-442,-70,912,4,0,18
791892,-445,-66,905,3,-10,17
791893,-435,-73,902,5,-25,18
791894,-432,-65,901,11,-33,22
791895,-440,-67,915,10,-32,21
791896,-428,-65,910,4,-23,18
791897,-437,-72,901,0,-9,15
791898,-440,-66,906,4,-5,17
791899,-436,-67,908,6,-12,20
791900,-438,-71,909,8,-23,20
791901,-435,-71,911,4,-28,18
791902,-435,-69,905,5,-17,19
791903,-437,-63,915,4,-7,18
791904,-440,-64,906,0,-5,16
791905,-436,-72,903,-2,-12,14
791906,-432,-73,910,5,-21,18
791907,-438,-60,910,11,-23,23
791908,-438,-61,906,11,-24,23
791909,-440,-61,904,3,-22,16
791910,-440,-69,909,-3,-20,12
791911,-444,-71,908,4,-15,17
791912,-439,-59,907,12,-16,25
791913,-437,-59,905,7,-26,21
791914,-433,-65,895,-1,-30,13
791915,-434,-72,909,0,-25,14
791916,-435,-69,910,5,-12,18
791917,-439,-65,908,7,-10,21
791918,-439,-65,909,4,-23,18
791919,-436,-64,901,4,-36,17
791920,-434,-72,897,7,-39,19
791921,-432,-70,908,15,-38,25
791922,-442,-67,914,14,-34,25
791923,-435,-66,911,5,-34,19
791924,-443,-72,911,4,-32,16
791925,-443,-70,907,0,-11,18
791926,-436,-67,910,1,-6,21
791927,-432,-69,902,-2,-27,17
791928,-421,-68,902,1,-42,17
791929,-428,-67,902,9,-36,23
791930,-431,-68,904,6,-24,19
791931,-439,-70,916,3,-20,16
791932,-441,-69,910,0,-17,15
791933,-437,-70,905,2,-17,18
791934,-439,-66,903,6,-18,20
791935,-433,-60,909,4,-18,20
791936,-431,-65,900,1,-14,17
791937,-437,-73,897,-1,-7,14
791938,-439,-72,904,2,-11,16
791939,-435,-68,902,5,-21,19
791940,-434,-71,911,9,-30,21
791941,-435,-65,910,9,-29,21
791942,-434,-65,907,7,-21,18
791943,-442,-63,904,3,-14,18
791944,-442,-61,905,2,-17,18
791945,-433,-67,894,2,-23,16
791946,-438,-74,909,4,-23,18
791947,-435,-72,902,6,-24,20
791948,-439,-74,903,6,-28,20
791949,-438,-67,907,4,-34,18
791950,-435,-71,910,8,-35,20
791951,-437,-67,908,11,-29,24
791952,-445,-62,907,7,-28,21
791953,-434,-64,906,-1,-30,16
791954,-428,-70,904,-1,-32,14
791955,-437,-77,908,4,-29,16
791956,-432,-61,914,9,-23,22
791957,-437,-69,911,4,-18,21
791958,-441,-63,910,-2,-18,16
791959,-432,-67,907,-5,-16,14
791960,-433,-67,898,-2,-14,14
791961,-436,-73,900,2,-18,18
791962,-431,-70,904,5,-30,16
791963,-431,-70,901,8,-35,20
791964,-437,-71,916,14,-30,23
791965,-439,-70,913,11,-20,20
791966,-432,-68,914,4,-14,17
791967,-431,-71,907,-2,-7,14
791968,-433,-71,908,1,-2,18
791969,-435,-64,899,5,-2,20
791970,-434,-67,900,4,-9,18
791971,-437,-75,898,2,-21,16
791972,-434,-69,906,9,-27,20
791973,-438,-61,912,14,-27,23
791974,-440,-66,914,9,-18,20
791975,-434,-66,914,0,-8,16
791976,-435,-74,914,-2,0,13
791977,-444,-68,910,-1,5,14
791978,-435,-64,904,0,0,18
791979,-428,-69,898,4,-24,19
791980,-427,-64,901,10,-42,18
791981,-428,-60,906,11,-39,21
791982,-437,-68,912,11,-26,20
791983,-434,-69,918,2,-16,15
791984,-442,-66,914,0,-9,15
791985,-438,-71,905,0,-6,18
791986,-439,-68,899,2,-11,20
791987,-435,-69,904,2,-21,18
791988,-431,-66,897,0,-28,16
791989,-432,-71,901,2,-29,18
791990,-431,-66,902,7,-23,20
791991,-444,-66,914,10,-21,23
791992,-435,-68,916,7,-24,21
791993,-443,-74,910,3,-30,18
791994,-441,-71,904,2,-24,17
791995,-433,-65,911,3,-20,19
791996,-435,-61,906,3,-18,20
791997,-432,-70,901,-2,-23,16
791998,-435,-70,905,-1,-24,14
791999,-438,-71,905,1,-18,16
792000,-433,-64,906,4,-13,18
792001,-439,-65,909,2,-11,16
792002,-442,-71,912,2,-20,17
792003,-435,-65,915,4,-29,18
792004,-438,-66,911,2,-18,18
792005,-428,-64,906,-6,3,15
792006,-434,-66,903,-10,18,11
792007,-436,-70,895,-6,11,12
792008,-443,-66,896,4,-15,17
792009,-436,-69,908,16,-49,23
792010,-437,-65,906,22,-67,28
792011,-434,-62,917,19,-59,26
792012,-434,-63,920,9,-30,20
792013,-430,-64,918,-4,2,13
792014,-434,-69,904,-11,15,11
792015,-440,-68,907,-4,7,14
792016,-439,-66,901,4,-12,18
792017,-431,-59,904,7,-32,21
792018,-426,-66,905,7,-37,19
792019,-430,-71,908,5,-30,17
792020,-433,-61,907,8,-16,20
792021,-442,-69,911,7,-12,20
792022,-434,-67,911,4,-13,18
792023,-433,-73,908,0,-14,16
792024,-433,-67,907,2,-14,17
792025,-440,-68,906,7,-14,19
792026,-437,-67,903,10,-20,22
792027,-438,-63,907,7,-32,21
792028,-433,-68,905,4,-36,17
792029,-429,-69,906,8,-29,18
792030,-436,-69,905,13,-16,24
792031,-438,-63,913,8,-6,21
792032,-438,-68,910,-4,-5,13
792033,-438,-73,908,-4,-7,13
792034,-439,-71,904,6,-11,21
792035,-435,-65,903,11,-24,23
792036,-432,-67,897,10,-37,21
792037,-427,-68,905,4,-38,16
792038,-434,-66,914,4,-22,14
792039,-439,-67,918,8,-4,19
792040,-438,-59,915,7,-4,21
792041,-443,-67,915,2,-16,20
792042,-430,-67,904,-1,-31,16
792043,-429,-64,901,3,-36,19
792044,-433,-67,900,7,-32,20
792045,-433,-69,900,4,-18,18
792046,-441,-67,908,1,-8,16
792047,-442,-64,910,5,-18,18
792048,-437,-65,916,12,-35,24
792049,-427,-68,915,10,-42,23
792050,-435,-69,908,4,-28,20
792051,-427,-69,910,-2,-7,16
792052,-436,-69,909,-1,4,15
792053,-444,-65,901,0,-8,16
792054,-442,-71,906,3,-30,18
792055,-435,-70,910,7,-43,21
792056,-428,-67,909,11,-38,23
792057,-433,-64,906,7,-23,21
792058,-431,-66,907,-1,-12,16
792059,-432,-72,905,-2,-1,13
792060,-434,-69,913,2,3,17
792061,-434,-67,906,5,0,21
792062,-437,-63,903,2,-14,17
792063,-435,-62,900,-2,-31,12
792064,-432,-71,899,2,-35,14
792065,-431,-71,904,11,-32,20
792066,-433,-70,918,13,-26,23
792067,-437,-62,920,7,-16,21
792068,-432,-66,914,1,-6,16
792069,-437,-66,908,-5,0,14
792070,-440,-70,903,-4,-9,14
792071,-433,-75,911,2,-25,18
792072,-435,-70,906,9,-36,22
792073,-432,-65,905,9,-41,22
792074,-430,-66,911,8,-37,19
792075,-431,-70,907,4,-25,18
792076,-437,-63,910,2,-14,16
792077,-438,-71,908,0,-7,16
792078,-434,-70,904,0,-9,16
792079,-437,-69,903,2,-22,18
792080,-433,-70,905,7,-32,19
792081,-432,-70,911,11,-32,23
792082,-435,-62,910,11,-26,23
792083,-434,-71,911,3,-21,19
792084,-442,-76,910,2,-18,18
792085,-434,-77,913,6,-19,21
792086,-435,-63,911,11,-23,24
792087,-432,-63,913,9,-24,25
792088,-433,-61,901,2,-25,19
792089,-431,-67,899,-1,-25,13
792090,-429,-70,905,2,-21,15
792091,-434,-72,909,7,-17,20
792092,-441,-64,908,11,-25,21
792093,-430,-73,909,11,-32,20
792094,-428,-74,913,10,-27,18
792095,-436,-68,911,4,-14,20
792096,-437,-63,912,0,-6,18
792097,-429,-63,907,-10,-7,9
792098,-432,-79,904,-4,-4,12
792099,-435,-68,902,5,-11,21
792100,-440,-64,909,13,-27,23
792101,-432,-65,907,6,-37,18
792102,-433,-71,914,2,-25,16
792103,-436,-66,908,3,-9,17
792104,-433,-69,908,3,-5,17
792105,-435,-69,914,2,-12,17
792106,-437,-72,913,2,-20,17
792107,-428,-67,914,6,-24,19
792108,-431,-63,911,5,-19,20
792109,-437,-62,906,2,-14,18
792110,-435,-62,900,0,-9,14
792111,-434,-67,899,1,-17,17
792112,-434,-65,903,8,-30,19
792113,-430,-62,901,12,-33,21
792114,-431,-62,908,11,-27,21
792115,-437,-66,913,7,-15,20
792116,-435,-72,911,0,-4,16
792117,-441,-69,914,1,0,16
792118,-438,-71,902,2,-9,18
792119,-431,-65,908,7,-25,20
792120,-426,-67,909,9,-28,20
792121,-433,-68,909,8,-17,21
792122,-438,-68,908,3,-6,17
792123,-438,-74,914,1,-12,15
792124,-435,-68,911,4,-25,16
792125,-431,-68,910,9,-32,21
792126,-430,-64,912,11,-25,24
792127,-431,-60,906,4,-12,19
792128,-429,-61,904,-5,-1,11
792129,-431,-73,902,-4,-1,11
792130,-434,-75,906,6,-11,18
792131,-434,-66,909,15,-27,25
792132,-432,-64,911,16,-39,24
792133,-435,-68,914,9,-37,18
792134,-435,-67,918,4,-18,16
792135,-435,-66,921,4,4,18
792136,-444,-66,914,0,13,16
792137,-444,-70,899,-6,2,12
792138,-437,-69,894,-2,-18,13
792139,-433,-75,899,9,-33,20
792140,-429,-69,909,19,-37,25
792141,-431,-66,912,16,-32,23
792142,-437,-67,916,9,-24,20
792143,-436,-71,921,2,-16,17
792144,-438,-72,917,-1,-7,17
792145,-437,-69,905,-7,-2,16
792146,-437,-72,903,-8,0,13
792147,-429,-67,894,-4,-8,14
792148,-426,-69,894,5,-19,16
792149,-438,-73,902,11,-29,20
792150,-437,-69,908,15,-35,22
792151,-433,-68,916,16,-42,22
792152,-434,-63,923,14,-37,22
792153,-434,-63,925,7,-19,21
792154,-436,-62,914,-2,0,16
792155,-436,-64,908,-9,11,12
792156,-435,-72,895,-7,10,12
792157,-438,-67,902,2,-8,18
792158,-433,-68,897,6,-32,19
792159,-431,-70,899,9,-42,19
792160,-431,-64,905,17,-41,22
792161,-437,-64,910,15,-30,23
792162,-433,-61,915,4,-20,15
792163,-429,-65,909,-4,-9,9
792164,-439,-73,908,-1,5,13
792165,-441,-70,905,9,11,22
792166,-439,-59,902,6,0,23
792167,-436,-67,905,-1,-23,14
792168,-433,-71,897,-1,-31,14
792169,-429,-69,897,11,-29,23
792170,-430,-65,906,16,-30,23
792171,-435,-64,910,12,-25,19
792172,-433,-68,920,4,-9,16
792173,-441,-65,914,5,-2,17
792174,-441,-62,914,7,-11,21
792175,-441,-63,910,3,-20,21
792176,-430,-67,905,0,-21,16
792177,-429,-67,905,0,-14,16
792178,-432,-67,900,7,-10,20
792179,-440,-69,902,9,-18,20
792180,-439,-72,909,7,-35,16
792181,-438,-75,908,11,-44,19
792182,-433,-64,914,17,-39,25
792183,-436,-56,920,14,-23,25
792184,-437,-60,912,-3,0,17
792185,-432,-66,905,-20,12,4
792186,-430,-71,895,-19,14,4
792187,-432,-73,902,1,3,18
792188,-433,-59,895,17,-18,28
792189,-432,-62,907,14,-39,23
792190,-432,-70,910,6,-39,16
792191,-433,-64,900,10,-23,20
792192,-437,-61,909,14,-20,23
792193,-439,-70,917,7,-25,16
792194,-430,-71,911,4,-23,14
792195,-434,-63,912,6,-14,17
792196,-436,-65,910,9,-7,20
792197,-442,-58,914,3,-4,18
792198,-435,-64,917,-2,-5,14
792199,-441,-71,908,-2,-4,13
792200,-435,-66,903,2,-5,18
792201,-436,-61,905,7,-13,21
792202,-441,-60,909,3,-26,18
792203,-434,-67,903,4,-35,15
792204,-434,-73,910,8,-30,19
792205,-440,-62,919,10,-18,23
792206,-440,-66,910,4,-17,21
792207,-433,-66,900,0,-24,15
792208,-432,-70,908,2,-28,16
792209,-432,-70,903,10,-30,22
792210,-441,-64,911,11,-28,23
792211,-433,-65,914,2,-21,18
792212,-434,-65,914,-5,-9,13
792213,-431,-67,908,-11,-1,10
792214,-433,-73,902,-6,2,14
792215,-431,-71,897,4,-11,18
792216,-436,-62,899,10,-30,20
792217,-435,-71,905,9,-43,17
792218,-433,-69,913,9,-41,16
792219,-437,-67,914,10,-25,18
792220,-436,-65,924,8,-8,19
792221,-440,-65,912,4,-3,20
792222,-430,-68,912,-2,-6,16
792223,-428,-68,909,-4,-12,14
792224,-431,-79,899,-3,-11,13
792225,-432,-68,902,3,-8,18
792226,-439,-65,904,8,-13,21
792227,-440,-65,909,11,-31,21
792228,-433,-72,911,8,-48,18
792229,-426,-73,914,10,-45,19
792230,-433,-74,911,14,-21,23
792231,-437,-60,918,9,0,22
792232,-434,-64,907,-2,6,14
792233,-435,-69,909,-8,2,11
792234,-431,-70,904,0,-11,16
792235,-435,-64,905,9,-27,22
792236,-434,-63,906,13,-37,21
792237,-434,-63,913,9,-31,18
792238,-437,-65,921,6,-17,16
792239,-436,-63,916,2,-6,16
792240,-435,-65,917,1,-2,18
792241,-436,-64,903,-2,-6,14
792242,-429,-73,902,-1,-10,15
792243,-435,-67,901,3,-13,17
792244,-435,-64,904,9,-18,20
792245,-438,-68,906,9,-28,18
792246,-431,-70,913,6,-35,16
792247,-431,-69,912,9,-34,19
792248,-433,-66,912,10,-23,21
792249,-440,-66,915,4,-9,18
792250,-437,-69,905,-4,-6,13
792251,-433,-69,906,-3,-11,14
792252,-431,-70,901,2,-17,17
792253,-435,-65,905,10,-25,23
792254,-433,-60,910,11,-30,21
792255,-433,-66,913,6,-27,18
792256,-434,-64,909,2,-14,16
792257,-434,-66,907,2,-6,18
792258,-439,-63,905,2,-13,18
792259,-439,-63,911,1,-25,17
792260,-433,-67,907,5,-33,19
792261,-432,-66,906,9,-28,20
792262,-435,-65,910,7,-18,19
792263,-435,-69,908,0,-12,13
792264,-442,-70,907,-2,-8,14
792265,-438,-66,915,4,-8,19
792266,-429,-62,903,5,-15,21
792267,-435,-67,902,11,-37,22
792268,-437,-72,903,-5,-22,9
792269,-439,-71,910,-2,0,12
792270,-439,-69,907,5,-16,19
792271,-429,-64,911,18,-54,27
792272,-427,-58,904,15,-54,25
792273,-428,-63,914,2,-21,15
792274,-437,-70,912,-12,15,7
792275,-445,-73,907,-9,23,12
792276,-441,-62,903,2,-3,18
792277,-440,-65,909,14,-44,23
792278,-423,-63,909,19,-67,26
792279,-426,-68,913,20,-54,25
792280,-434,-58,920,5,-14,17
792281,-437,-66,911,-13,19,7
792282,-449,-75,912,-14,25,8
792283,-448,-65,900,0,5,20
792284,-437,-59,899,12,-31,26
792285,-430,-66,888,10,-56,20
792286,-420,-71,906,5,-45,17
792287,-430,-73,908,4,-13,17
792288,-440,-69,919,8,4,17
792289,-445,-64,920,8,-1,18
792290,-445,-70,914,7,-19,21
792291,-436,-69,912,8,-36,21
792292,-430,-67,906,7,-35,21
792293,-432,-67,908,8,-16,22
792294,-431,-65,910,-3,5,13
792295,-436,-68,906,-5,15,11
792296,-441,-66,904,-1,-2,13
792297,-441,-74,905,10,-28,21
792298,-433,-64,912,19,-50,28
792299,-438,-60,911,16,-58,23
792300,-422,-65,918,5,-36,15
792301,-425,-66,921,4,-1,18
792302,-443,-68,918,0,25,17
792303,-453,-66,906,-9,23,11
792304,-444,-72,903,-7,-22,12
792305,-420,-75,902,11,-74,23
792306,-421,-72,906,28,-80,32
792307,-426,-61,919,21,-46,29
792308,-433,-66,918,-6,-2,9
792309,-441,-76,917,-18,28,0
792310,-447,-80,911,-9,28,8
792311,-451,-72,904,4,-6,20
792312,-430,-62,899,13,-55,26
792313,-426,-68,899,14,-81,24
792314,-417,-71,908,8,-55,18
792315,-419,-69,909,2,0,16
792316,-445,-62,918,0,33,16
792317,-445,-66,914,-3,23,11
792318,-442,-72,907,1,-14,17
792319,-432,-69,894,16,-47,27
792320,-422,-58,907,18,-51,28
792321,-433,-61,903,14,-29,23
792322,-428,-62,911,2,-8,15
792323,-437,-63,905,-7,1,10
792324,-436,-74,906,-6,-8,9
792325,-432,-72,910,5,-16,18
792326,-439,-60,913,10,-9,24
792327,-433,-64,909,9,-11,18
792328,-431,-71,906,6,-19,16
792329,-434,-77,905,14,-18,22
792330,-442,-67,909,19,-19,28
792331,-437,-66,918,15,-34,25
792332,-438,-61,919,5,-46,18
792333,-435,-71,917,0,-37,14
792334,-430,-70,911,-5,-3,15
792335,-434,-61,904,-8,27,13
792336,-438,-66,895,-12,28,8
792337,-442,-69,900,-10,4,7
792338,-436,-75,901,1,-25,16
792339,-430,-67,897,16,-52,25
792340,-427,-60,909,23,-65,28
792341,-427,-65,914,16,-43,22
792342,-434,-65,914,2,-1,14
792343,-444,-68,921,-4,18,11
792344,-445,-66,909,0,11,17
792345,-443,-67,901,1,-11,20
792346,-432,-65,886,4,-37,18
792347,-420,-73,890,7,-45,19
792348,-430,-68,896,11,-32,19
792349,-436,-70,908,16,-21,23
792350,-442,-65,917,13,-27,23
792351,-439,-62,915,4,-33,16
792352,-437,-64,907,0,-30,15
792353,-428,-66,906,2,-13,18
792354,-436,-69,901,-2,7,16
792355,-435,-64,907,-7,6,12
792356,-437,-71,896,-4,-9,11
792357,-437,-73,904,9,-23,21
792358,-432,-64,907,17,-31,26
792359,-434,-60,917,8,-30,21
792360,-434,-66,916,0,-17,14
792361,-433,-70,909,0,-4,16
792362,-434,-70,911,4,-2,19
792363,-433,-72,903,7,-12,21
792364,-433,-68,900,4,-25,17
792365,-431,-73,899,2,-28,16
792366,-428,-68,904,6,-23,17
792367,-431,-67,908,14,-26,23
792368,-429,-68,909,19,-34,25
792369,-428,-62,910,6,-28,20
792370,-431,-69,914,0,-12,14
792371,-441,-71,915,-4,2,14
792372,-444,-64,908,-2,2,15
792373,-441,-70,902,2,-9,17
792374,-435,-67,904,6,-24,21
792375,-431,-66,906,8,-33,22
792376,-428,-64,908,7,-28,18
792377,-437,-62,908,2,-18,14
792378,-437,-73,913,3,-14,14
792379,-438,-65,913,7,-14,20
792380,-439,-69,921,8,-17,23
792381,-429,-62,914,4,-20,21
792382,-435,-71,906,1,-16,18
792383,-433,-70,896,0,-11,16
792384,-440,-69,904,4,-16,18
792385,-432,-67,904,7,-23,18
792386,-435,-69,906,6,-28,19
792387,-428,-67,910,4,-25,18
792388,-430,-65,902,5,-23,18
792389,-433,-64,909,4,-14,18
792390,-432,-66,905,0,-7,14
792391,-431,-68,905,-4,-2,13
792392,-436,-72,899,-2,-4,12
792393,-436,-65,907,3,-14,16
792394,-436,-70,908,10,-29,21
792395,-437,-67,909,12,-38,23
792396,-433,-68,915,11,-35,23
792397,-433,-69,911,6,-23,18
792398,-431,-62,909,0,-10,16
792399,-437,-68,902,-1,-5,15
792400,-442,-68,905,0,-14,16
792401,-437,-67,909,7,-23,18
792402,-432,-69,912,12,-23,23
792403,-429,-64,914,11,-16,24
792404,-435,-63,903,4,-11,19
792405,-437,-69,908,-2,-14,14
792406,-431,-72,906,-2,-16,14
792407,-440,-68,902,6,-12,20
792408,-436,-66,908,9,-22,22
792409,-432,-65,911,8,-36,19
792410,-433,-68,912,6,-36,18
792411,-427,-70,915,3,-18,18
792412,-432,-65,908,0,1,16
792413,-439,-70,908,-1,12,16
792414,-437,-60,904,-3,5,17
792415,-437,-58,899,-2,-26,14
792416,-426,-78,900,4,-49,14
792417,-429,-76,903,13,-32,23
792418,-438,-58,915,18,-9,28
792419,-443,-58,918,1,3,15
792420,-440,-69,915,-9,-3,9
792421,-438,-75,902,-3,-4,15
792422,-442,-67,902,6,-3,23
792423,-438,-56,904,9,-25,23
792424,-432,-71,892,5,-50,14
792425,-424,-71,902,9,-44,17
792426,-431,-66,916,21,-17,26
792427,-444,-57,917,11,0,23
792428,-444,-64,914,-5,-6,11
792429,-440,-72,908,-3,-14,12
792430,-438,-71,908,5,-15,21
792431,-429,-63,897,11,-16,24
792432,-436,-61,898,7,-26,18
792433,-429,-79,912,3,-39,11
792434,-431,-77,912,9,-32,18
792435,-435,-60,919,14,-18,26
792436,-437,-61,913,9,-7,22
792437,-434,-68,912,-7,-1,11
792438,-432,-75,903,-10,-3,7
792439,-430,-70,901,7,-11,19
792440,-439,-65,902,15,-23,28
792441,-438,-63,911,11,-35,22
792442,-431,-72,910,4,-37,14
792443,-437,-68,904,4,-31,16
792444,-439,-69,911,10,-23,22
792445,-439,-65,913,11,-13,23
792446,-442,-69,916,3,-12,19
792447,-438,-70,902,-2,-16,15
792448,-430,-68,902,3,-19,19
792449,-439,-67,900,6,-23,21
792450,-440,-68,903,2,-20,17
792451,-438,-71,909,2,-20,15
792452,-434,-69,909,5,-30,16
792453,-435,-68,915,11,-32,22
792454,-428,-65,914,4,-24,21
792455,-432,-67,915,-4,-7,15
792456,-427,-68,904,-14,10,8
792457,-431,-68,897,-11,18,9
792458,-438,-71,889,1,4,15
792459,-440,-66,894,16,-31,22
792460,-436,-67,912,28,-66,26
792461,-433,-66,918,30,-70,30
792462,-434,-58,927,21,-42,25
792463,-436,-64,922,1,-2,16
792464,-442,-68,917,-14,24,9
792465,-442,-67,902,-16,25,8
792466,-436,-69,895,-9,10,14
792467,-432,-72,890,3,-16,21
792468,-432,-66,895,10,-37,23
792469,-432,-63,905,14,-45,21
792470,-441,-68,914,14,-41,21
792471,-436,-67,915,11,-36,21
792472,-436,-63,916,5,-31,18
792473,-430,-69,911,1,-22,16
792474,-429,-67,909,0,-6,16
792475,-432,-67,899,-3,6,14
792476,-436,-70,898,-8,5,11
792477,-433,-70,899,-2,-10,11
792478,-435,-75,900,9,-28,20
792479,-434,-68,908,19,-42,26
792480,-433,-60,910,19,-48,25
792481,-431,-62,912,8,-40,18
792482,-431,-68,918,0,-21,13
792483,-442,-67,920,0,1,16
792484,-440,-67,907,0,8,19
792485,-439,-67,905,-3,-1,16
792486,-430,-71,899,-3,-16,15
792487,-434,-65,897,5,-29,18
792488,-433,-67,907,13,-32,22
792489,-440,-66,914,11,-31,23
792490,-443,-62,913,6,-29,18
792491,-434,-73,913,1,-25,15
792492,-432,-66,912,3,-16,18
792493,-429,-61,910,4,-7,21
792494,-437,-58,905,-3,-5,17
792495,-434,-69,910,-8,-7,10
792496,-439,-74,901,-2,-11,14
792497,-439,-70,903,7,-19,21
792498,-432,-65,913,12,-27,23
792499,-438,-62,913,9,-36,21
792500,-435,-70,911,4,-33,16
792501,-435,-73,908,3,-15,16
792502,-438,-66,910,10,-7,21
792503,-434,-64,914,11,-23,23
792504,-426,-61,909,7,-29,18
792505,-431,-69,918,2,-18,16
792506,-433,-66,906,0,-5,14
792507,-435,-71,907,4,-2,18
792508,-442,-66,910,6,-7,21
792509,-439,-69,905,7,-24,21
792510,-436,-72,908,8,-38,20
792511,-426,-66,914,11,-42,22
792512,-427,-64,907,10,-34,21
792513,-428,-66,910,1,-18,16
792514,-437,-66,914,-1,0,14
792515,-444,-74,909,2,0,16
792516,-438,-66,906,5,-14,19
792517,-436,-66,897,7,-26,21
792518,-436,-68,905,3,-30,17
792519,-433,-67,900,4,-27,16
792520,-438,-71,907,4,-17,18
792521,-442,-68,912,1,-9,17
792522,-436,-63,912,-2,-16,13
792523,-439,-74,910,0,-23,13
792524,-424,-72,905,2,-16,20
792525,-424,-69,901,4,-3,21
792526,-439,-65,890,-1,-4,15
792527,-434,-76,894,-3,-19,10
792528,-440,-73,917,11,-39,18
792529,-434,-67,917,21,-33,25
792530,-437,-60,920,21,-3,27
792531,-443,-63,917,2,7,19
792532,-441,-69,902,-11,-12,9
792533,-429,-74,906,-4,-32,11
792534,-431,-69,908,9,-25,23
792535,-433,-60,911,13,-12,27
792536,-434,-61,910,1,-19,16
792537,-434,-70,911,-5,-25,10
792538,-438,-77,907,3,-21,16
792539,-438,-64,917,19,-20,28
792540,-441,-61,906,9,-26,24
792541,-429,-69,908,-4,-28,10
792542,-424,-70,910,-3,-15,13
792543,-431,-67,908,2,-4,18
792544,-437,-60,912,5,2,19
792545,-442,-66,908,-2,-1,14
792546,-439,-69,904,-1,-18,12
792547,-430,-73,904,9,-37,20
792548,-431,-66,910,18,-43,27
792549,-431,-61,912,14,-35,24
792550,-433,-71,920,4,-21,15
792551,-436,-77,922,-2,-2,11
792552,-440,-73,909,2,8,18
792553,-442,-62,904,4,-2,21
792554,-433,-65,901,4,-27,18
792555,-426,-74,900,4,-39,16
792556,-429,-67,909,4,-30,16
792557,-429,-58,912,6,-14,17
792558,-436,-64,914,4,-1,17
792559,-435,-69,906,0,-4,14
792560,-431,-66,911,5,-14,19
792561,-436,-65,907,8,-27,19
792562,-433,-75,909,7,-32,18
792563,-433,-70,912,12,-26,23
792564,-438,-60,906,7,-14,22
792565,-434,-65,915,0,-11,14
