# falldetect-gkl fd_studio v1
# label=walking
# mount=neck
# subject=s01
# started=2026-08-24T00:23:01
# units=accel milli-g, gyro deci-dps
# firmware=unknown
# notes=
seq,ax,ay,az,gx,gy,gz
47326,1000,73,-62,4,-13,14
47327,1014,53,-24,-8,-2,17
47328,1015,67,-31,-19,-11,13
47329,1015,66,-53,-25,-18,11
47330,1011,67,-66,-30,-13,9
47331,1016,73,-65,-36,-7,9
47332,1021,70,-60,-44,-2,11
47333,1022,87,-63,-50,4,18
47334,1030,81,-54,-58,15,28
47335,1022,70,-40,-59,19,37
47336,1016,68,-39,-59,16,42
47337,1017,71,-61,-56,18,46
47338,1009,74,-66,-61,30,51
47339,1012,62,-35,-67,39,53
47340,998,55,-12,-70,35,49
47341,994,60,-7,-63,24,42
47342,1004,61,-5,-51,14,35
47343,1004,81,-15,-40,2,33
47344,1003,101,-20,-41,-4,38
47345,1013,95,-18,-56,-4,53
47346,1012,93,-23,-59,-7,66
47347,1015,96,-12,-64,-11,79
47348,1020,80,-23,-71,-18,92
47349,1015,75,-20,-74,-21,98
47350,1005,68,-31,-67,-20,96
47351,1011,57,-18,-55,-20,93
47352,1009,55,-21,-46,-29,83
47353,1009,48,-43,-39,-39,71
47354,1016,66,-59,-35,-35,62
47355,1019,75,-50,-28,-28,60
47356,1019,74,-56,-28,-22,62
47357,1022,77,-56,-32,-18,70
47358,1032,75,-60,-44,-14,79
47359,1023,64,-63,-55,-6,86
47360,1011,60,-52,-53,4,86
47361,1019,74,-34,-56,10,89
47362,1011,84,-27,-63,8,95
47363,1012,70,-15,-63,4,102
47364,1008,54,-3,-58,-1,105
47365,1013,41,7,-54,-16,101
47366,1005,39,-13,-52,-30,95
47367,1001,39,-17,-46,-33,86
47368,1010,27,-8,-33,-37,73
47369,1016,34,-5,-26,-48,59
47370,1004,49,-32,-30,-58,48
47371,1000,38,-40,-29,-56,41
47372,1010,46,-18,-18,-56,31
47373,1008,60,-8,-13,-63,23
47374,1011,75,-19,-18,-75,24
47375,1016,70,-36,-23,-81,26
47376,1016,80,-49,-26,-81,29
47377,1010,89,-53,-31,-76,37
47378,1019,85,-28,-37,-70,46
47379,1012,80,-19,-46,-75,54
47380,1005,75,-30,-52,-82,59
47381,1003,64,-27,-56,-86,60
47382,1006,63,-21,-53,-89,57
47383,1011,65,-45,-49,-98,55
47384,1020,73,-67,-47,-95,59
47385,1019,80,-66,-41,-83,67
47386,1021,88,-58,-37,-74,83
47387,1027,-22,-83,-35,-65,93
47388,1010,32,-46,14,-54,81
47389,1037,0,-24,9,-58,81
47390,1015,-33,-76,4,-65,63
47391,1025,-25,-104,18,-55,27
47392,1029,9,-90,30,-36,-2
47393,1020,49,-73,34,-21,-11
47394,1022,65,-58,30,-9,-7
47395,1025,62,-44,23,-7,3
47396,1015,44,-58,19,-5,12
47397,1005,28,-42,23,0,14
47398,1010,30,-24,28,2,9
47399,1003,36,-28,28,-4,5
47400,1013,35,-15,25,-12,3
47401,1013,38,-25,23,-18,1
47402,1014,40,-34,22,-21,-2
47403,1008,52,-37,21,-20,-2
47404,1003,51,-31,14,-20,0
47405,1010,46,-27,14,-26,0
47406,1011,63,-43,16,-30,1
47407,1022,64,-47,14,-28,9
47408,1021,66,-46,10,-26,18
47409,1014,66,-55,1,-23,26
47410,1022,58,-51,-3,-18,32
47411,1022,45,-48,0,-16,34
47412,1016,40,-47,2,-16,31
47413,1017,50,-53,-1,-15,29
47414,1024,58,-63,-7,-10,31
47415,1021,59,-53,-10,-8,32
47416,1018,66,-52,-14,-4,35
47417,1010,56,-33,-16,-2,39
47418,1010,54,-32,-14,-4,38
47419,1013,60,-34,-12,-10,38
47420,1009,60,-47,-11,-11,42
47421,1011,52,-38,-9,-14,40
47422,1015,46,-38,-6,-18,35
47423,1014,46,-61,-4,-16,30
47424,1016,41,-42,-3,-15,26
47425,1010,64,-39,0,-18,23
47426,1012,75,-39,1,-23,25
47427,1014,70,-45,0,-25,32
47428,1013,68,-47,0,-24,37
47429,1020,62,-43,-4,-25,45
47430,1006,47,-38,-9,-24,47
47431,1010,38,-40,-4,-26,42
47432,1020,51,-41,4,-29,37
47433,1016,49,-55,7,-28,35
47434,1021,52,-53,3,-25,34
47435,1023,52,-55,0,-23,33
47436,1020,59,-66,0,-17,37
47437,1023,59,-51,-2,-9,44
47438,1020,58,-43,-5,-9,49
47439,1015,58,-51,-11,-10,54
47440,1017,41,-56,-13,-8,58
47441,1013,34,-43,-9,-4,54
47442,1007,38,-26,-7,-5,47
47443,1011,37,-25,-12,-12,44
47444,1007,39,-37,-15,-20,43
47445,1009,43,-49,-11,-21,41
47446,1014,51,-50,-14,-20,43
47447,1011,42,-41,-22,-19,45
47448,1008,35,-43,-21,-21,41
47449,1007,44,-43,-16,-19,35
47450,1008,58,-35,-14,-18,31
47451,1016,59,-25,-16,-22,34
47452,1014,59,-45,-14,-27,39
47453,1017,54,-60,-11,-23,44
47454,1019,45,-56,-10,-18,47
47455,1019,43,-48,-16,-18,48
47456,1020,34,-57,-21,-15,46
47457,1019,38,-56,-20,-14,42
47458,1017,42,-47,-16,-9,37
47459,1015,56,-45,-15,-9,39
47460,1023,48,-42,-16,-10,45
47461,1009,33,-45,-9,-13,44
47462,1002,40,-44,-1,-11,41
47463,1012,38,-31,6,-9,39
47464,1019,38,-26,5,-16,39
47465,1016,40,-48,2,-24,36
47466,1016,36,-66,2,-20,37
47467,1016,35,-42,6,-11,34
47468,1019,42,-29,8,-10,29
47469,1013,51,-35,2,-17,31
47470,1009,37,-54,-3,-19,35
47471,1016,31,-60,0,-16,32
47472,1017,41,-54,1,-7,29
47473,1013,44,-30,-4,-3,30
47474,1011,50,-19,-9,-8,30
47475,1011,58,-32,-2,-17,32
47476,1013,59,-26,2,-20,35
47477,1019,48,-29,1,-23,37
47478,1008,39,-49,-4,-25,37
47479,1008,40,-57,-7,-23,34
47480,1017,44,-32,-3,-17,30
47481,1020,54,-23,-5,-21,30
47482,1003,55,-30,-10,-27,33
47483,1009,52,-35,-10,-30,36
47484,1018,49,-46,-2,-29,37
47485,1020,56,-37,1,-30,41
47486,1012,44,-33,-3,-30,44
47487,1021,20,-48,-3,-36,44
47488,1020,23,-64,1,-36,37
47489,1021,35,-59,4,-29,31
47490,1015,39,-51,1,-23,28
47491,1019,46,-42,-3,-24,27
47492,1014,52,-53,-4,-25,28
47493,1016,46,-47,-5,-21,31
47494,1018,48,-44,-4,-18,31
47495,1011,55,-35,-5,-22,34
47496,1013,51,-39,-10,-23,39
47497,1020,47,-41,-10,-23,43
47498,1006,43,-25,-8,-24,44
47499,1012,43,-24,-11,-28,49
47500,1015,28,-38,-15,-35,51
47501,1011,35,-48,-13,-37,49
47502,1017,36,-41,-8,-35,45
47503,1021,38,-29,-9,-38,45
47504,1016,33,-44,-13,-45,44
47505,1008,36,-61,-14,-43,42
47506,1014,37,-37,-10,-38,41
47507,1017,34,-35,-8,-41,37
47508,1012,23,-50,-6,-45,31
47509,1015,18,-64,-2,-42,23
47510,1012,34,-45,7,-35,16
47511,1019,43,-20,3,-39,18
47512,1009,23,-42,-6,-49,21
47513,1010,25,-55,-7,-52,16
47514,1007,36,-56,2,-49,7
47515,1018,55,-42,10,-49,7
47516,1018,59,-41,5,-51,12
47517,1015,55,-60,-2,-51,19
47518,1009,46,-70,-3,-47,23
47519,1015,45,-65,-3,-40,24
47520,1023,40,-50,-9,-37,25
47521,1017,38,-53,-16,-35,28
47522,1015,32,-56,-13,-32,26
47523,1020,35,-57,-2,-30,23
47524,1023,51,-61,2,-30,22
47525,1014,53,-70,-7,-25,26
47526,1013,42,-63,-18,-16,32
47527,1017,40,-61,-19,-9,33
47528,1009,45,-46,-17,-5,35
47529,1015,38,-24,-20,-7,38
47530,1005,27,-32,-23,-16,37
47531,1004,34,-53,-21,-21,33
47532,1012,40,-48,-17,-17,32
47533,1015,42,-33,-18,-17,32
47534,1009,47,-32,-25,-23,35
47535,1003,55,-56,-30,-28,44
47536,1010,40,-50,-27,-24,48
47537,1017,40,-45,-21,-24,49
47538,1016,28,-45,-23,-25,49
47539,1016,21,-64,-25,-25,43
47540,1017,37,-60,-19,-23,36
47541,1023,50,-52,-20,-19,40
47542,1019,41,-53,-31,-15,48
47543,1013,30,-46,-35,-16,51
47544,1006,34,-48,-28,-17,47
47545,1016,29,-51,-22,-15,46
47546,1013,24,-46,-22,-16,44
47547,1013,38,-40,-21,-21,42
47548,1005,35,-52,-23,-22,41
47549,1012,39,-56,-24,-20,42
47550,1013,29,-53,-21,-16,41
47551,1010,28,-52,-18,-14,42
47552,1016,20,-45,-17,-16,44
47553,1008,20,-45,-11,-16,41
47554,1011,27,-42,-4,-16,37
47555,1020,31,-43,-9,-20,37
47556,1011,31,-59,-17,-22,37
47557,1014,37,-68,-16,-17,36
47558,1016,39,-60,-13,-7,37
47559,1016,44,-40,-12,-4,41
47560,1014,44,-40,-14,-10,44
47561,1015,45,-51,-13,-12,47
47562,1019,24,-53,-14,-9,50
47563,1018,17,-52,-14,-11,46
47564,1009,30,-51,-16,-10,40
47565,1008,31,-42,-19,-10,37
47566,1010,30,-42,-23,-13,35
47567,1012,34,-45,-23,-15,33
47568,1013,32,-36,-23,-16,35
47569,1012,26,-30,-25,-20,34
47570,1009,21,-41,-22,-25,29
47571,1018,38,-49,-18,-26,27
47572,1022,31,-46,-21,-24,27
47573,1017,29,-49,-25,-25,28
47574,1012,16,-55,-26,-23,25
47575,1023,14,-45,-22,-21,22
47576,1022,21,-39,-17,-23,23
47577,1014,20,-48,-15,-26,23
47578,1017,17,-63,-16,-23,23
47579,1021,21,-58,-16,-18,23
47580,1019,21,-52,-14,-16,21
47581,1014,26,-55,-11,-14,18
47582,1008,16,-45,-8,-14,16
47583,1018,20,-48,-4,-18,8
47584,1016,38,-61,-4,-18,2
47585,1026,44,-63,-7,-14,6
47586,1021,46,-68,-10,-7,12
47587,1014,42,-66,-9,-2,18
47588,1016,29,-52,-12,3,20
47589,1015,31,-26,-13,2,18
47590,1012,32,-43,-13,-3,18
47591,1016,38,-52,-12,-4,19
47592,1011,36,-42,-11,0,19
47593,1013,35,-36,-10,-1,21
47594,1006,45,-40,-11,-4,22
47595,1004,45,-41,-14,-8,24
47596,1013,41,-45,-16,-12,25
47597,1006,43,-47,-14,-13,23
47598,1016,42,-30,-11,-13,23
47599,1012,39,-30,-9,-18,23
47600,1012,45,-51,-7,-23,23
47601,1012,48,-55,-6,-23,28
47602,1017,43,-41,-9,-21,35
47603,1016,39,-49,-16,-24,39
47604,1019,30,-61,-19,-23,40
47605,1019,18,-58,-18,-16,39
47606,1022,29,-44,-16,-11,37
47607,1013,29,-47,-16,-12,38
47608,1015,27,-57,-18,-13,42
47609,1021,34,-57,-16,-8,46
47610,1024,36,-57,-15,-4,51
47611,1025,31,-56,-22,-2,54
47612,1012,13,-57,-32,-2,53
47613,1019,13,-49,-32,2,49
47614,1006,34,-48,-25,5,44
47615,1018,46,-26,-26,2,49
47616,1024,55,-36,-37,-4,59
47617,1013,44,-54,-46,-7,72
47618,1013,34,-48,-47,-1,81
47619,1016,35,-32,-44,0,85
47620,1004,40,-23,-49,-2,90
47621,971,2,0,-53,-8,89
47622,1038,59,6,-32,-26,85
47623,1017,81,-28,-49,-40,109
47624,1006,37,-53,-65,-42,143
47625,1003,7,-38,-72,-38,158
47626,1001,6,-44,-81,-37,154
47627,1012,9,-42,-79,-37,144
47628,1018,20,-35,-75,-40,136
47629,1022,22,-46,-81,-47,135
47630,1024,18,-66,-91,-49,137
47631,1022,21,-63,-107,-42,138
47632,1029,18,-52,-129,-35,138
47633,1030,11,-34,-155,-34,140
47634,1021,22,-32,-172,-40,144
47635,1008,20,-23,-181,-48,144
47636,1011,21,-23,-190,-57,149
47637,1013,14,-12,-210,-66,151
47638,1015,29,1,-228,-79,149
47639,1019,52,14,-234,-100,154
47640,1020,43,23,-235,-127,168
47641,1006,28,58,-226,-163,184
47642,985,33,86,-210,-217,197
47643,981,40,82,-188,-287,216
47644,994,37,69,-172,-362,238
47645,996,22,35,-173,-430,260
47646,1006,18,-8,-192,-478,275
47647,1015,11,-35,-247,-502,286
47648,1020,31,-32,-319,-516,299
47649,1024,39,-16,-401,-536,317
47650,1033,23,-17,-464,-565,335
47651,1026,70,33,-475,-610,351
47652,994,81,21,-445,-654,378
47653,989,62,-3,-345,-706,405
47654,991,35,-69,-226,-752,426
47655,982,-1,-99,-136,-779,440
47656,976,-42,-119,-102,-789,444
47657,979,-57,-95,-113,-800,439
47658,978,-57,-81,-140,-824,430
47659,953,-53,-74,-160,-861,421
47660,951,-41,-63,-158,-901,415
47661,971,-8,6,-140,-945,410
47662,970,66,88,-175,-1010,426
47663,974,132,148,-205,-1107,469
47664,946,171,188,-248,-1229,539
47665,939,159,165,-284,-1367,632
47666,923,189,146,-277,-1501,716
47667,926,260,108,-263,-1620,809
47668,908,304,107,-214,-1733,934
47669,853,230,87,-134,-1853,1069
47670,827,94,16,1,-1972,1166
47671,823,0,-69,200,-2062,1201
47672,836,-49,-181,424,-2112,1198
47673,841,-53,-278,690,-2129,1184
47674,829,-88,-383,923,-2112,1172
47675,867,-44,-424,1115,-2053,1147
47676,904,167,-438,1327,-1991,1145
47677,896,214,-437,1498,-1954,1234
47678,847,103,-505,1573,-1927,1357
47679,821,3,-624,1629,-1878,1443
47680,846,-67,-669,1688,-1792,1497
47681,840,-79,-707,1706,-1681,1528
47682,874,99,-647,1799,-1569,1548
47683,892,352,-679,1834,-1500,1655
47684,844,308,-860,1755,-1408,1875
47685,840,213,-906,1526,-1218,2091
47686,790,116,-942,1283,-995,2287
47687,780,28,-873,1071,-749,2449
47688,734,-142,-847,922,-520,2558
47689,788,-223,-799,909,-249,2549
47690,640,-130,-575,1043,-65,2538
47691,647,-87,-331,1144,49,2646
47692,659,-345,-108,1117,63,2792
47693,608,-659,-94,967,11,2841
47694,535,-844,-59,860,-40,2768
47695,508,-747,-78,847,-75,2597
47696,490,-622,-111,888,-92,2461
47697,509,-554,-150,959,-88,2391
47698,469,-515,-160,1103,-70,2364
47699,517,-456,-153,1275,128,2368
47700,687,-473,17,1376,107,2439
47701,622,-440,-63,1409,-74,2503
47702,490,-291,-255,1417,-219,2599
47703,371,-247,-440,1455,-245,2779
47704,338,-428,-590,1482,-189,3008
47705,320,-648,-514,1548,-88,3169
47706,335,-880,-404,1584,-30,3241
47707,290,-1055,-424,1607,-9,3230
47708,332,-1118,-546,1608,-6,3173
47709,239,-1150,-664,1563,77,3110
47710,249,-1262,-631,1552,218,3024
47711,237,-1361,-439,1507,322,2881
47712,255,-1426,-325,1331,345,2706
47713,260,-1365,-284,1075,332,2505
47714,339,-1103,-204,957,303,2309
47715,299,-892,-224,923,259,2218
47716,284,-814,-257,1012,240,2214
47717,192,-842,-225,1101,252,2254
47718,196,-973,-195,1078,270,2273
47719,186,-1059,-159,998,299,2240
47720,127,-1132,-68,861,303,2168
47721,74,-1150,-45,715,282,2054
47722,139,-1134,-61,561,247,1942
47723,183,-1134,-66,478,214,1830
47724,154,-1156,-124,446,190,1729
47725,117,-1190,-203,357,194,1636
47726,138,-1179,-257,261,221,1549
47727,137,-1154,-233,228,259,1477
47728,68,-1205,-196,205,276,1430
47729,64,-1391,-148,180,266,1372
47730,34,-1490,-157,151,242,1245
47731,62,-1433,-118,182,210,1071
47732,60,-1373,-50,251,142,913
47733,36,-1415,-78,305,46,763
47734,44,-1375,-117,322,-35,600
47735,52,-1290,-163,326,-85,459
47736,82,-1236,-197,318,-103,357
47737,72,-1181,-198,317,-101,273
47738,64,-1084,-217,301,-88,205
47739,95,-996,-202,284,-61,170
47740,145,-918,-160,262,-39,171
47741,152,-900,-120,226,-37,202
47742,142,-968,-115,169,-46,231
47743,128,-999,-110,126,-59,225
47744,148,-955,-142,86,-70,204
47745,182,-915,-161,60,-72,199
47746,183,-868,-180,35,-59,219
47747,165,-854,-178,18,-51,261
47748,153,-903,-176,0,-41,310
47749,142,-961,-180,-10,-32,340
47750,144,-966,-166,2,-30,348
47751,133,-979,-161,16,-37,357
47752,144,-1012,-181,2,-44,361
47753,148,-1026,-214,-8,-45,354
47754,141,-1037,-235,-23,-37,340
47755,145,-1036,-220,-42,-18,324
47756,125,-1007,-189,-47,-2,310
47757,121,-1005,-187,-61,4,301
47758,135,-976,-168,-46,8,291
47759,106,-918,-158,-12,4,296
47760,105,-872,-116,34,-5,326
47761,121,-914,-127,75,-22,364
47762,115,-962,-98,140,-50,378
47763,114,-967,-96,187,-81,377
47764,113,-963,-143,211,-102,373
47765,112,-963,-162,235,-112,369
47766,111,-960,-182,254,-110,372
47767,111,-963,-188,260,-94,375
47768,114,-950,-183,259,-71,383
47769,106,-993,-149,258,-53,390
47770,87,-1028,-124,254,-50,380
47771,72,-998,-108,267,-63,356
47772,68,-949,-118,285,-75,351
47773,63,-921,-111,327,-89,369
47774,69,-963,-105,330,-108,397
47775,70,-1052,-138,304,-125,401
47776,54,-1070,-158,279,-126,374
47777,49,-1060,-183,251,-107,338
47778,43,-1067,-182,224,-81,306
47779,40,-1100,-191,167,-61,274
47780,39,-1104,-166,103,-38,228
47781,38,-1069,-154,62,-22,180
47782,41,-1054,-138,30,-10,145
47783,47,-1055,-121,-9,-2,114
47784,44,-1053,-107,-49,0,79
47785,48,-1003,-97,-70,0,54
47786,52,-958,-87,-79,-5,51
47787,42,-983,-90,-102,-14,64
47788,20,-1019,-96,-134,-22,67
47789,37,-1006,-90,-153,-32,56
47790,58,-973,-115,-140,-44,46
47791,60,-936,-142,-102,-55,54
47792,52,-962,-179,-77,-54,77
47793,46,-1004,-183,-76,-42,93
47794,49,-1033,-172,-93,-23,88
47795,47,-1033,-163,-111,-9,70
47796,57,-987,-141,-117,0,56
47797,64,-964,-134,-117,0,54
47798,63,-972,-139,-123,-3,59
47799,69,-963,-143,-131,-4,60
47800,76,-954,-144,-133,-1,62
47801,55,-936,-135,-131,-3,67
47802,60,-941,-139,-147,-3,84
47803,68,-961,-142,-169,-2,100
47804,63,-997,-148,-188,-4,105
47805,60,-1019,-153,-202,-7,96
47806,45,-1042,-163,-210,-5,76
47807,37,-1054,-161,-213,-3,49
47808,41,-1026,-160,-209,-3,25
47809,41,-989,-154,-203,-2,12
47810,45,-968,-160,-189,-1,13
47811,24,-950,-155,-167,-1,29
47812,25,-972,-143,-157,-1,50
47813,39,-996,-152,-142,-7,58
47814,20,-1019,-163,-126,-15,52
47815,15,-1008,-172,-117,-17,41
47816,40,-982,-185,-105,-11,32
47817,33,-963,-166,-81,-3,36
47818,35,-977,-162,-65,0,41
47819,32,-1002,-147,-59,-4,39
47820,37,-993,-152,-58,-8,30
47821,57,-964,-157,-58,-11,25
47822,48,-955,-165,-53,-16,29
47823,38,-947,-176,-46,-15,39
47824,53,-950,-171,-35,-7,49
47825,65,-954,-159,-28,-9,60
47826,36,-940,-151,-1,-19,71
47827,42,-931,-163,10,-28,89
47828,54,-960,-171,1,-29,108
47829,51,-990,-172,-6,-28,113
47830,54,-989,-178,-6,-29,107
47831,47,-977,-192,-1,-30,104
47832,49,-998,-196,-4,-26,104
47833,37,-1013,-209,-14,-20,100
47834,36,-1023,-204,-31,-8,89
47835,37,-1003,-199,-35,1,76
47836,35,-994,-191,-32,6,72
47837,33,-1024,-185,-32,9,70
47838,40,-1015,-192,-30,12,57
47839,39,-965,-173,-9,13,49
47840,37,-947,-167,21,7,58
47841,29,-979,-165,39,-1,71
47842,32,-1005,-173,42,-4,74
47843,40,-984,-168,42,-2,69
47844,40,-950,-152,44,0,65
47845,37,-935,-139,53,-4,74
47846,29,-958,-147,53,-11,88
47847,29,-967,-136,58,-16,95
47848,47,-962,-131,58,-25,104
47849,23,-956,-137,57,-36,111
47850,36,-969,-157,50,-44,116
47851,42,-988,-179,44,-48,119
47852,39,-1002,-196,39,-42,118
47853,21,-996,-194,27,-29,114
47854,41,-958,-184,28,-16,110
47855,45,-915,-174,47,-13,123
47856,28,-928,-190,56,-16,157
47857,26,-974,-185,52,-12,186
47858,25,-1013,-175,44,-7,190
47859,15,-1005,-166,37,-7,177
47860,14,-983,-180,36,-7,165
47861,21,-981,-185,32,-4,165
47862,15,-1006,-188,22,4,167
47863,16,-1023,-171,22,11,161
47864,2,-1019,-162,17,16,149
47865,-3,-1039,-155,15,16,136
47866,0,-1030,-162,11,15,116
47867,-5,-992,-172,0,18,102
47868,5,-944,-169,-14,26,105
47869,1,-932,-155,-12,33,125
47870,-7,-971,-150,-18,37,151
47871,-2,-986,-159,-24,39,161
47872,4,-962,-144,-14,41,163
47873,14,-916,-125,21,33,175
47874,-150,-512,192,340,39,234
47875,-16,-816,14,240,42,427
47876,34,-1158,-133,72,2,500
47877,-11,-1213,-100,72,-26,407
47878,9,-1127,-193,94,-44,282
47879,-3,-990,-233,85,-38,223
47880,5,-967,-226,47,-7,224
47881,-1,-928,-205,41,22,238
47882,-5,-953,-162,14,26,271
47883,-24,-1012,-130,16,18,287
47884,-26,-1077,-174,7,7,274
47885,-21,-1110,-207,-2,-10,234
47886,-38,-1142,-205,-22,-6,175
47887,-41,-1142,-221,-53,8,107
47888,-56,-1095,-219,-74,25,44
47889,-55,-1058,-191,-93,42,2
47890,-77,-1018,-168,-105,53,-18
47891,-59,-1005,-146,-123,60,-23
47892,-54,-990,-133,-121,56,-24
47893,-40,-959,-145,-105,44,-21
47894,-117,-721,-54,42,56,0
47895,-5,-890,-104,14,45,99
47896,-5,-1109,-152,-23,4,130
47897,-25,-1042,-124,28,-13,69
47898,-32,-958,-143,47,-24,28
47899,-28,-929,-143,22,-19,32
47900,-25,-927,-126,-2,-15,54
47901,-20,-958,-103,-12,-25,70
47902,-25,-984,-120,-12,-42,68
47903,-18,-973,-144,-4,-54,62
47904,-14,-983,-171,-7,-60,60
47905,-22,-1005,-186,-23,-56,58
47906,-23,-1014,-203,-40,-44,49
47907,-15,-1020,-203,-53,-35,36
47908,-21,-1015,-209,-56,-28,25
47909,-26,-1032,-209,-57,-22,15
47910,-34,-1048,-205,-61,-18,-1
47911,-24,-1050,-211,-67,-14,-25
47912,-29,-1012,-202,-60,-4,-46
47913,-24,-977,-185,-50,1,-51
47914,-16,-978,-179,-47,3,-45
47915,-21,-983,-176,-38,1,-42
47916,-41,-981,-169,-39,0,-42
47917,-32,-965,-161,-51,4,-41
47918,-33,-968,-143,-57,4,-35
47919,-41,-974,-154,-64,0,-27
47920,-41,-988,-156,-64,0,-23
47921,-18,-965,-154,-54,0,-23
47922,-15,-913,-154,-28,-4,-16
47923,-16,-930,-159,-4,-11,10
47924,-20,-950,-184,3,-12,35
47925,3,-959,-176,7,-6,47
47926,-4,-962,-163,17,-5,56
47927,-8,-960,-167,28,-9,62
47928,0,-944,-172,36,-14,67
47929,-16,-953,-182,42,-15,77
47930,-4,-972,-182,33,-11,87
47931,-1,-995,-186,18,-7,89
47932,-14,-1001,-179,2,-3,81
47933,-24,-999,-166,-5,-1,70
47934,-14,-991,-157,-8,0,60
47935,-21,-982,-153,-1,-11,53
47936,-31,-986,-169,7,-21,52
47937,-32,-1006,-184,4,-23,50
47938,-33,-1011,-201,-4,-17,43
47939,-38,-1002,-195,-16,-9,33
47940,-43,-988,-188,-28,0,29
47941,-40,-1004,-178,-38,7,30
47942,-38,-1008,-151,-25,7,25
47943,-23,-980,-147,-1,-7,18
47944,-27,-952,-180,23,-20,23
47945,-25,-955,-203,39,-18,38
47946,-24,-960,-195,38,-5,51
47947,-17,-939,-178,44,4,61
47948,-20,-914,-162,59,3,82
47949,-48,-942,-157,64,0,109
47950,-29,-968,-169,59,1,127
47951,-25,-975,-163,56,1,136
47952,-29,-955,-162,59,0,142
47953,38,-898,-238,79,0,157
47954,28,-670,-193,89,-23,283
47955,-8,-1093,-84,36,-11,387
47956,-17,-1133,-140,84,-16,334
47957,-81,-1085,-192,133,-35,250
47958,-36,-963,-272,126,-12,210
47959,-29,-836,-252,100,28,239
47960,-26,-855,-172,81,51,310
47961,-62,-911,-131,99,53,369
47962,-63,-979,-138,123,44,403
47963,-53,-1013,-151,147,32,404
47964,-57,-1032,-191,143,18,390
47965,-57,-995,-213,158,15,368
47966,-69,-950,-228,149,30,366
47967,-82,-905,-186,152,56,392
47968,-67,-888,-152,154,79,434
47969,-78,-892,-131,158,83,483
47970,-93,-894,-118,174,75,536
47971,-82,-891,-100,217,63,582
47972,-70,-899,-139,251,45,619
47973,-79,-891,-174,288,32,656
47974,-87,-882,-170,342,37,695
47975,-104,-890,-170,378,59,739
47976,-101,-912,-192,371,72,790
47977,-99,-883,-172,365,95,835
47978,-101,-826,-149,375,116,889
47979,-91,-804,-152,388,119,955
47980,-95,-809,-132,420,121,1033
47981,-106,-855,-136,450,130,1106
47982,-125,-894,-117,483,130,1143
47983,-117,-889,-110,527,116,1162
47984,-154,-916,-89,570,100,1177
47985,-153,-958,-92,593,91,1190
47986,-173,-1007,-90,599,88,1179
47987,-210,-1014,-80,593,87,1143
47988,-214,-1019,-61,568,86,1102
47989,-193,-1057,-78,536,79,1057
47990,-219,-1026,-93,517,74,1017
47991,-249,-999,-100,452,87,991
47992,-253,-983,-131,387,112,969
47993,-238,-882,-103,452,135,959
47994,-223,-772,-48,605,146,1004
47995,-265,-833,18,697,111,1087
47996,-297,-943,-6,734,67,1124
47997,-295,-980,-69,717,32,1128
47998,-303,-1016,-138,668,40,1118
47999,-321,-1016,-125,641,67,1100
48000,-341,-984,-99,637,92,1068
48001,-377,-927,-102,645,115,1049
48002,-391,-903,-10,662,144,1051
48003,-346,-876,-6,625,161,1066
48004,-403,-905,-44,533,156,1101
48005,-400,-924,-55,547,170,1120
48006,-401,-935,-27,625,190,1115
48007,-408,-961,-10,641,191,1099
48008,-399,-910,0,630,193,1075
48009,-416,-856,65,572,188,1069
48010,-345,-780,85,589,151,1088
48011,-384,-810,31,627,114,1141
48012,-399,-817,36,616,81,1173
48013,-459,-884,-20,523,58,1204
48014,-485,-894,-11,471,48,1197
48015,-518,-956,-100,401,79,1206
48016,-512,-1017,-163,254,168,1201
48017,-546,-1074,-49,187,243,1150
48018,-556,-1054,143,176,266,1063
48019,-493,-1027,90,127,263,1003
48020,-539,-948,96,130,204,935
48021,-554,-939,100,247,145,893
48022,-524,-841,80,314,111,837
48023,-547,-812,76,330,93,815
48024,-569,-804,110,323,61,824
48025,-554,-867,39,231,23,856
48026,-570,-922,2,212,-4,859
48027,-573,-922,24,268,-11,830
48028,-584,-866,-20,270,-7,794
48029,-560,-790,-9,270,9,793
48030,-602,-896,-34,242,27,805
48031,-597,-978,-40,215,44,777
48032,-596,-986,-88,191,81,726
48033,-599,-999,-75,125,128,673
48034,-624,-1004,55,139,154,597
48035,-612,-958,106,145,147,519
48036,-592,-895,184,186,100,450
48037,-569,-835,159,235,35,404
48038,-562,-813,106,254,-21,387
48039,-562,-821,2,252,-46,382
48040,-573,-817,-47,293,-30,385
48041,-551,-780,-48,333,4,392
48042,-557,-798,-32,330,42,408
48043,-568,-825,15,306,77,417
48044,-568,-841,75,293,92,409
48045,-588,-855,117,305,79,389
48046,-582,-857,103,315,54,361
48047,-584,-819,97,332,29,331
48048,-600,-804,81,348,11,314
48049,-605,-803,49,340,5,306
48050,-623,-786,48,326,20,301
48051,-629,-780,54,312,39,303
48052,-648,-794,81,329,51,314
48053,-653,-819,104,366,44,317
48054,-657,-840,101,378,25,311
48055,-655,-870,66,373,7,295
48056,-654,-872,67,389,0,265
48057,-650,-855,66,418,-2,230
48058,-651,-817,33,447,-4,203
48059,-637,-754,47,492,3,186
48060,-625,-718,76,505,20,195
48061,-618,-732,102,499,29,219
48062,-609,-752,103,510,26,237
48063,-627,-775,106,527,23,242
48064,-627,-787,109,538,23,233
48065,-614,-778,100,520,28,224
48066,-609,-792,91,483,37,215
48067,-616,-786,104,464,45,205
48068,-620,-766,114,472,44,199
48069,-608,-746,105,486,46,201
48070,-610,-733,99,501,45,212
48071,-608,-758,103,527,41,231
48072,-613,-771,94,557,39,237
48073,-632,-756,115,583,46,235
48074,-631,-755,149,592,56,238
48075,-646,-766,161,581,52,237
48076,-649,-755,179,577,36,235
48077,-668,-775,159,574,22,233
48078,-670,-793,153,553,14,224
48079,-662,-798,145,531,6,211
48080,-668,-825,148,529,-7,192
48081,-667,-841,124,515,-11,166
48082,-673,-834,122,505,-5,134
48083,-671,-790,128,497,7,102
48084,-666,-754,148,469,21,84
48085,-658,-745,161,432,30,80
48086,-650,-764,170,420,30,77
48087,-642,-774,170,420,23,67
48088,-641,-784,148,422,21,51
48089,-651,-779,144,420,25,31
48090,-652,-766,154,417,35,12
48091,-641,-744,169,429,42,0
48092,-643,-722,168,459,42,-6
48093,-645,-717,177,494,44,-6
48094,-646,-717,200,485,46,3
48095,-656,-738,204,443,46,9
48096,-659,-708,225,424,37,9
48097,-656,-721,208,427,20,20
48098,-663,-747,194,448,4,25
48099,-656,-777,185,466,0,21
48100,-666,-791,171,464,5,4
48101,-662,-772,181,462,18,-18
48102,-661,-750,180,475,20,-39
48103,-668,-731,193,503,25,-49
48104,-659,-694,213,516,35,-49
48105,-649,-694,236,533,40,-42
48106,-674,-677,316,688,21,-39
48107,-646,-738,217,634,-18,-12
48108,-690,-822,151,517,-2,-11
48109,-652,-800,169,515,31,-51
48110,-674,-817,185,560,44,-88
48111,-670,-826,169,600,54,-128
48112,-655,-831,181,607,74,-165
48113,-664,-801,214,574,87,-200
48114,-656,-761,253,543,95,-224
48115,-618,-731,280,549,90,-239
48116,-653,-779,264,538,58,-246
48117,-639,-786,230,458,51,-260
48118,-623,-754,237,359,61,-273
48119,-617,-759,261,268,70,-283
48120,-626,-780,273,193,74,-297
48121,-633,-803,287,137,73,-324
48122,-641,-799,304,104,65,-361
48123,-661,-806,294,58,54,-399
48124,-667,-826,293,10,44,-438
48125,-681,-861,285,-46,39,-483
48126,-702,-901,291,-109,34,-539
48127,-706,-930,297,-163,27,-609
48128,-715,-941,292,-236,19,-692
48129,-716,-996,276,-315,16,-774
48130,-708,-1047,285,-376,12,-875
48131,-696,-1070,293,-425,3,-1001
48132,-682,-1075,286,-485,-7,-1138
48133,-672,-1055,265,-532,-22,-1282
48134,-665,-1072,272,-578,-35,-1421
48135,-654,-1088,260,-638,-44,-1559
48136,-658,-1041,247,-644,-46,-1708
48137,-591,-955,219,-649,-52,-1839
48138,-586,-915,275,-570,-51,-1934
48139,13,-607,246,-510,-52,-1984
48140,-378,-703,176,-618,-38,-1871
48141,-309,-878,32,-752,-6,-1763
48142,-369,-981,208,-739,-4,-1771
48143,-462,-1299,46,-885,-26,-1795
48144,-565,-1357,10,-968,-79,-1929
48145,-582,-1385,402,-729,-105,-2179
48146,-481,-1540,94,-662,-84,-2434
48147,-696,-1453,158,-652,-37,-2744
48148,-688,-1300,249,-732,0,-3034
48149,-772,-1140,162,-949,73,-3227
48150,-393,-1055,54,-1169,133,-3290
48151,-659,-899,346,-1293,153,-3284
48152,-508,-843,-26,-1486,140,-3155
48153,-424,-658,493,-1377,130,-3018
48154,-429,-849,-100,-1593,46,-2803
48155,-350,-666,52,-1478,-35,-2661
48156,-359,-434,-23,-1247,-138,-2476
48157,-367,-599,115,-804,-207,-2349
48158,-353,-613,96,-520,-262,-2224
48159,-226,-724,0,-510,-313,-2032
48160,-164,-756,-75,-455,-307,-1855
48161,-169,-863,-179,-633,-248,-1695
48162,-114,-894,40,-636,-200,-1611
48163,-46,-951,88,-652,-170,-1577
48164,-87,-1012,187,-723,-187,-1575
48165,-21,-988,365,-676,-272,-1598
48166,-24,-1065,230,-629,-413,-1629
48167,-44,-1074,282,-576,-538,-1686
48168,-81,-1086,165,-548,-637,-1737
48169,-96,-1122,226,-519,-714,-1775
48170,-616,-87,-313,-666,-698,-1811
48171,-143,-682,124,-532,-655,-1648
48172,-37,-709,69,-594,-648,-1422
48173,-147,-676,106,-674,-600,-1256
48174,121,-745,360,-634,-609,-1129
48175,212,-712,309,-894,-630,-1034
48176,282,-843,513,-1057,-677,-959
48177,101,-897,136,-1318,-793,-919
48178,615,-702,328,-1792,-846,-886
48179,-85,-982,-259,-1997,-942,-879
48180,-21,-1167,-158,-1192,-919,-947
48181,42,-1316,-322,-1080,-847,-1061
48182,103,-1423,-246,-918,-732,-1211
48183,110,-1607,-243,-909,-704,-1384
48184,61,-1715,-418,-1070,-616,-1659
48185,60,-1700,-485,-899,-504,-2000
48186,70,-1626,-575,-776,-371,-2323
48187,138,-1578,-552,-769,-223,-2634
48188,4,-1471,-386,-672,-89,-2880
48189,-19,-1341,-185,-606,0,-3063
48190,-22,-1214,-130,-605,18,-3206
48191,26,-1139,-110,-606,-3,-3288
48192,7,-1004,20,-727,-28,-3307
48193,114,-1057,-182,-925,-85,-3284
48194,129,-1083,-276,-1012,-70,-3321
48195,87,-1138,-369,-1103,-11,-3396
48196,4,-1067,-346,-1159,100,-3493
48197,62,-1095,-426,-1300,188,-3567
48198,75,-1056,-253,-1161,291,-3694
48199,-28,-1045,-381,-1168,343,-3810
48200,20,-803,-686,-971,268,-4141
48201,217,-896,-178,-669,416,-4105
48202,159,-769,-451,-1337,623,-4033
48203,258,-642,-293,-1213,730,-4060
48204,323,-619,-192,-1432,844,-3973
48205,363,-583,-143,-1828,985,-3874
48206,288,-596,84,-1970,1078,-3799
48207,280,-587,80,-1948,1024,-3774
48208,254,-629,227,-1843,919,-3784
48209,142,-589,223,-1646,730,-3818
48210,255,-503,171,-1195,444,-3892
48211,362,-505,104,-734,161,-3962
48212,403,-406,47,-497,-56,-4023
48213,682,97,-161,-422,-246,-4093
48214,1962,3398,-173,-1976,-118,-4126
48215,1582,5559,406,-1577,185,-2711
48216,726,3197,203,-2077,20,-263
48217,731,1150,-321,-2267,-184,1318
48218,829,502,-539,-2343,-198,1986
48219,1262,-296,-824,-2586,-118,2333
48220,1673,-2022,-809,-2496,99,2279
48221,1093,-2988,-772,-2504,413,1454
48222,778,-2112,-339,-2073,538,253
48223,670,-912,-188,-1579,485,-613
48224,907,-109,-426,-1314,423,-893
48225,879,199,-560,-1260,472,-778
48226,1222,327,-581,-1314,573,-485
48227,928,-265,-476,-1260,697,-172
48228,913,-521,-393,-1262,767,-114
48229,909,-351,-250,-1525,871,-154
48230,903,-233,-132,-1530,921,-177
48231,945,-218,-45,-1283,891,-123
48232,921,-85,-53,-1047,785,-55
48233,981,-74,-45,-813,665,4
48234,914,-292,-148,-487,552,65
48235,899,-421,-236,-371,480,60
48236,970,-270,-279,-345,447,-11
48237,880,-363,-389,-196,427,-42
48238,923,-362,-287,-27,429,-79
48239,966,-371,-8,208,398,-95
48240,1187,-644,136,358,336,-133
48241,939,-480,-325,380,276,-245
48242,904,-390,-234,577,211,-313
48243,873,-208,-143,702,190,-338
48244,981,13,-35,717,133,-262
48245,830,-45,-70,838,35,-49
48246,958,-196,-226,830,-58,138
48247,957,-317,-405,778,-75,278
48248,986,-375,-365,747,-15,355
48249,903,-496,-359,770,60,369
48250,785,-536,-230,749,117,340
48251,877,-535,-11,775,91,256
48252,860,-566,48,965,-2,161
48253,852,-517,-17,1114,-123,80
48254,857,-463,-106,1256,-235,39
48255,459,-475,-450,1353,-259,-41
48256,970,-60,-19,1645,-93,-190
48257,1050,-155,162,1512,-359,-52
48258,1007,-566,-162,1692,-641,74
48259,958,-449,-663,2025,-667,-75
48260,971,-147,-744,2014,-455,-149
48261,936,-233,-624,1694,-165,-29
48262,970,-483,-428,1341,60,72
48263,986,-566,-312,1117,157,33
48264,929,-638,-400,949,200,-77
48265,933,-635,-447,832,282,-217
48266,930,-577,-474,727,392,-352
48267,932,-622,-490,566,515,-450
48268,919,-671,-479,506,655,-608
48269,937,-686,-432,592,784,-787
48270,884,-647,-439,841,886,-959
48271,967,-519,-296,1181,935,-1048
48272,909,-420,-227,1334,953,-1045
48273,917,-371,-200,1491,952,-1012
48274,1003,-280,-178,1681,941,-944
48275,1137,-255,-110,1785,953,-810
48276,1191,-474,-76,1691,1001,-670
48277,847,-246,105,1071,1095,-886
48278,802,-74,342,959,1015,-968
48279,581,-59,399,1004,842,-966
48280,359,-136,644,949,617,-953
48281,313,-232,703,693,326,-975
48282,425,-534,820,216,26,-998
48283,651,-844,768,49,-312,-1124
48284,828,-921,633,-272,-602,-1339
48285,754,-686,617,-903,-800,-1563
48286,744,-465,251,-1768,-812,-1735
48287,840,-275,231,-2756,-777,-1811
48288,910,-229,-16,-2585,-891,-1831
48289,947,-130,-406,-1635,-1066,-1874
48290,992,-38,-474,-568,-1155,-1905
48291,1076,29,-675,-335,-1025,-1869
48292,1068,38,-681,-191,-840,-1800
48293,1051,23,-688,-98,-639,-1719
48294,1039,18,-599,7,-444,-1657
48295,1037,-14,-493,95,-272,-1603
48296,1055,2,-362,185,-157,-1576
48297,1039,27,-255,224,-87,-1547
48298,1038,50,-174,205,-51,-1505
48299,1034,87,-121,144,-48,-1456
48300,1032,138,-130,98,-65,-1407
48301,1056,210,-125,85,-79,-1344
48302,1040,278,-110,53,-81,-1252
48303,1025,341,-89,41,-92,-1133
48304,1031,382,-63,0,-108,-982
48305,1027,388,-78,-63,-126,-816
48306,1027,382,-112,-102,-140,-662
48307,1017,375,-151,-102,-139,-525
48308,1020,377,-167,-78,-123,-396
48309,1020,366,-180,-63,-100,-268
48310,1031,349,-189,-50,-72,-142
48311,1039,318,-186,-39,-44,-24
48312,917,621,-40,-91,-18,79
48313,762,2339,248,-1577,-27,425
48314,1049,583,33,-1024,-275,1176
48315,1010,-1088,-511,1,-385,1278
48316,950,-631,-558,276,-257,802
48317,1056,-7,-368,108,-93,548
48318,1081,-143,-313,-87,-2,552
48319,980,-311,-297,-145,60,486
48320,1041,-209,-267,-4,71,351
48321,1095,-91,-365,140,86,255
48322,1034,-55,-439,134,151,235
48323,900,-162,-515,59,361,209
48324,1127,97,-283,21,511,185
48325,1079,50,-209,52,529,238
48326,715,-53,-241,83,520,280
48327,939,-39,-325,-5,568,284
48328,643,103,-135,-42,667,321
48329,1015,6,-33,-194,700,395
48330,1132,-87,74,-233,681,431
48331,936,-285,142,-251,606,395
48332,899,-351,96,-139,510,275
48333,697,-152,45,-13,425,172
48334,890,43,65,10,354,192
48335,968,122,113,9,291,326
48336,782,60,91,50,225,482
48337,1157,-81,-52,76,128,589
48338,1103,-151,-58,179,105,634
48339,1067,-185,-168,274,142,615
48340,1137,-163,-205,278,188,581
48341,1148,-140,-159,363,256,539
48342,1088,-204,-206,376,303,486
48343,1159,-216,-185,427,335,391
48344,1120,-273,-203,545,367,254
48345,895,-243,-227,658,413,90
48346,936,-163,-244,751,466,-67
48347,995,-100,-203,892,534,-186
48348,1008,-78,-195,1000,608,-262
48349,1111,12,-155,1106,666,-314
48350,1199,114,-212,1147,720,-301
48351,1174,153,-230,1119,797,-215
48352,1142,148,-204,1088,895,-102
48353,1058,97,-162,1096,1001,6
48354,1000,105,-117,1108,1104,84
48355,1000,104,-50,1160,1190,140
48356,991,131,33,1152,1241,203
48357,988,151,135,1136,1253,284
48358,1005,130,179,1180,1236,379
48359,1020,108,225,1241,1191,484
48360,1003,99,220,1193,1126,602
48361,1002,46,166,1127,1057,685
48362,1010,30,88,1021,1011,725
48363,1037,9,97,910,989,739
48364,1020,-37,82,844,979,730
48365,979,-101,86,837,976,698
48366,951,-73,86,836,972,662
48367,937,-73,67,917,975,638
48368,905,-93,3,1033,1014,634
48369,871,-178,-2,1213,1071,598
48370,886,-298,46,1432,1129,506
48371,968,-316,70,1492,1215,396
48372,1036,-309,12,1390,1321,313
48373,1028,-301,39,1228,1414,271
48374,1002,-288,37,1028,1520,233
48375,998,-248,42,827,1618,193
48376,971,-213,-21,646,1727,189
48377,939,-137,-9,590,1878,204
48378,922,-140,100,653,2019,219
48379,890,-229,254,830,2100,184
48380,892,-252,375,1031,2068,114
48381,882,-348,678,1330,1961,9
48382,936,-287,749,1459,1779,-108
48383,986,-125,794,1419,1526,-216
48384,901,-64,607,1398,1268,-272
48385,882,168,650,1399,1103,-252
48386,928,222,489,1222,1058,-138
48387,903,90,344,1059,1088,43
48388,871,-65,304,1006,1150,198
48389,868,-182,284,1038,1211,251
48390,849,-281,349,1190,1248,238
48391,841,-251,411,1299,1264,168
48392,864,-201,565,1336,1255,79
48393,846,-129,500,1285,1208,-1
48394,839,-71,640,1259,1149,-25
48395,863,-31,599,1222,1099,-9
48396,844,-119,567,1271,1056,11
48397,900,-120,414,1163,1026,-45
48398,813,-221,325,1251,1034,-98
48399,780,-388,515,1610,1069,-189
48400,789,-468,530,1737,1091,-396
48401,893,-125,565,1726,1052,-620
48402,825,-56,583,1727,1001,-745
48403,815,11,761,1708,947,-811
48404,816,176,605,1463,905,-825
48405,823,312,674,1122,877,-762
48406,793,257,569,975,856,-632
48407,792,189,522,921,868,-507
48408,827,73,514,968,911,-415
48409,858,48,598,952,991,-394
48410,874,132,419,833,1092,-397
48411,886,35,356,629,1246,-371
48412,883,-76,757,674,1298,-430
48413,841,26,792,646,1175,-525
48414,774,-26,444,741,1044,-604
48415,809,165,541,840,1059,-651
48416,783,221,627,782,1106,-689
48417,789,284,777,642,1082,-681
48418,776,317,717,424,1020,-625
48419,746,327,746,288,980,-564
48420,744,324,723,130,963,-499
48421,732,354,820,-17,914,-411
48422,748,205,772,-103,824,-326
48423,781,206,802,-132,736,-289
48424,767,197,813,-122,647,-254
48425,782,183,750,-209,581,-219
48426,777,212,717,-278,546,-181
48427,785,252,646,-304,544,-119
48428,797,194,706,-316,571,-49
48429,781,165,802,-356,569,-18
48430,779,156,812,-395,518,-1
48431,737,138,734,-382,460,16
48432,741,140,650,-265,432,35
48433,725,107,675,-148,448,51
48434,705,100,700,-49,466,51
48435,707,94,676,27,477,43
48436,693,29,684,115,501,25
48437,702,84,726,204,518,-18
48438,690,103,722,264,522,-41
48439,695,86,722,302,534,-51
48440,690,82,814,360,532,-72
48441,687,135,853,380,488,-95
48442,684,163,826,370,433,-99
48443,672,142,782,361,383,-91
48444,674,162,750,392,360,-82
48445,679,206,770,416,354,-63
48446,677,199,807,420,333,-39
48447,683,202,818,408,296,-21
48448,680,202,798,401,252,-2
48449,689,182,813,394,218,16
48450,672,176,809,366,189,28
48451,684,180,772,347,163,37
48452,637,116,718,299,157,54
48453,617,180,706,247,184,51
48454,662,224,693,267,223,72
48455,659,154,733,308,259,94
48456,671,144,771,333,269,88
48457,659,111,848,350,249,67
48458,663,121,877,310,198,35
48459,679,141,826,250,147,12
48460,678,182,787,219,116,4
48461,668,176,787,190,103,7
48462,673,166,764,173,98,12
48463,682,179,767,161,100,12
48464,668,150,787,132,100,9
48465,674,163,795,102,88,0
48466,661,158,776,94,70,-11
48467,670,170,781,94,56,-22
48468,666,199,764,84,45,-28
48469,653,201,757,70,44,-23
48470,656,208,776,63,42,-20
48471,648,217,785,60,30,-15
48472,650,225,775,59,14,-10
48473,656,248,776,63,-4,2
48474,662,231,764,56,-21,19
48475,659,230,743,41,-32,27
48476,650,223,747,20,-31,36
48477,662,251,736,6,-25,51
48478,669,221,742,-11,-14,70
48479,652,182,739,-35,-9,81
48480,670,212,754,-29,-4,79
48481,685,207,774,2,-7,81
48482,676,162,766,20,-15,79
48483,681,167,758,42,-20,63
48484,671,180,771,63,-21,51
48485,658,209,755,74,-26,47
48486,653,208,744,75,-23,53
48487,648,178,769,64,-18,64
48488,653,191,764,63,-16,64
48489,647,194,766,62,-16,67
48490,633,166,791,49,-18,73
48491,640,155,812,22,-31,70
48492,651,170,775,15,-53,59
48493,640,109,781,-5,-61,50
48494,646,175,777,-15,-70,31
48495,662,211,783,-32,-84,25
48496,612,189,718,-36,-69,51
48497,682,80,830,-37,-56,53
48498,704,168,813,-56,-106,-28
48499,657,246,796,-70,-153,-33
48500,650,183,740,-63,-175,-16
48501,673,187,739,-56,-168,-13
48502,657,209,760,-58,-165,-14
48503,667,229,771,-61,-177,-8
48504,656,171,759,-77,-186,4
48505,676,168,781,-80,-201,-7
48506,680,188,800,-74,-228,-21
48507,674,166,761,-72,-257,-26
48508,669,203,676,-84,-248,-28
48509,704,227,623,-73,-197,-12
48510,687,195,660,-58,-128,8
48511,694,191,694,-30,-83,16
48512,702,179,710,1,-60,14
48513,686,168,729,21,-47,4
48514,688,172,762,40,-44,-7
48515,691,188,763,50,-60,-21
48516,665,195,754,44,-74,-25
48517,673,197,746,35,-81,-25
48518,658,192,743,12,-84,-28
48519,663,202,743,-6,-86,-25
48520,654,199,743,-33,-91,-21
48521,654,210,737,-57,-91,-11
48522,669,198,756,-76,-87,3
48523,670,170,755,-105,-88,7
48524,683,174,764,-133,-89,2
48525,689,166,751,-137,-98,-1
48526,682,154,726,-121,-99,-9
48527,686,155,718,-94,-88,-16
48528,666,177,722,-78,-67,-16
48529,676,197,732,-49,-49,-7
48530,698,173,738,-28,-39,6
48531,704,154,731,-14,-36,5
48532,695,173,728,-12,-30,-4
48533,683,184,729,-13,-19,-6
48534,687,190,734,-18,-7,0
48535,683,182,747,-34,0,3
48536,682,176,735,-49,0,3
48537,671,173,736,-63,1,2
48538,651,170,780,-92,-1,0
48539,663,193,773,-121,-21,0
48540,661,192,737,-148,-34,4
48541,656,208,735,-168,-32,11
48542,669,219,747,-190,-30,25
48543,670,203,751,-214,-28,42
48544,677,186,755,-238,-30,49
48545,675,203,778,-269,-37,51
48546,677,200,789,-301,-56,58
48547,686,204,782,-336,-80,65
48548,683,192,775,-382,-100,71
48549,684,169,786,-424,-116,74
48550,692,179,772,-482,-129,76
48551,687,166,752,-502,-142,81
48552,697,142,774,-513,-153,80
48553,699,140,775,-574,-163,74
48554,717,155,790,-606,-182,71
48555,722,150,767,-635,-197,74
48556,696,122,767,-651,-205,77
48557,699,134,749,-632,-212,74
48558,710,139,746,-602,-214,78
48559,707,128,755,-622,-209,80
48560,711,130,744,-624,-212,80
48561,706,102,765,-629,-218,81
48562,668,94,764,-663,-223,80
48563,657,109,727,-676,-221,81
48564,683,130,714,-627,-210,89
48565,690,126,740,-639,-194,103
48566,698,106,738,-665,-185,116
48567,699,106,754,-679,-186,117
48568,696,116,759,-690,-189,118
48569,702,105,776,-727,-196,124
48570,689,57,800,-835,-214,116
48571,667,48,787,-898,-240,83
48572,691,105,763,-950,-258,66
48573,707,104,795,-1002,-272,83
48574,715,53,781,-1045,-293,100
48575,726,11,795,-1121,-323,90
48576,732,-6,767,-1173,-349,65
48577,745,3,724,-1213,-360,34
48578,721,-20,657,-1206,-355,12
48579,715,-28,628,-1095,-334,-5
48580,731,-20,630,-962,-292,-22
48581,741,-2,643,-882,-247,-41
48582,747,12,662,-849,-220,-61
48583,727,-7,723,-795,-210,-78
48584,728,1,722,-766,-215,-95
48585,712,-6,699,-746,-222,-102
48586,732,-18,702,-723,-232,-105
48587,737,5,744,-674,-252,-100
48588,743,2,744,-622,-278,-79
48589,745,-21,731,-626,-301,-73
48590,739,-31,721,-576,-324,-78
48591,735,-48,742,-520,-348,-95
48592,753,-49,722,-501,-376,-124
48593,744,-37,733,-458,-408,-156
48594,728,-47,709,-446,-434,-177
48595,713,-47,680,-437,-445,-183
48596,741,-35,656,-412,-437,-183
48597,761,-34,611,-336,-425,-172
48598,754,-35,568,-280,-382,-151
48599,749,-24,584,-252,-307,-114
48600,774,-6,624,-212,-239,-68
48601,784,-18,641,-199,-193,-35
48602,767,-31,653,-210,-162,-21
48603,756,-44,671,-209,-147,-15
48604,764,-60,678,-195,-142,-18
48605,747,-65,672,-178,-145,-27
48606,745,-78,683,-160,-147,-44
48607,765,-60,687,-137,-151,-61
48608,766,-59,692,-137,-153,-67
48609,771,-55,675,-149,-151,-69
48610,750,-60,672,-157,-144,-72
48611,757,-59,677,-168,-140,-73
48612,758,-45,684,-175,-136,-69
48613,771,-35,707,-176,-144,-60
48614,778,-41,695,-185,-160,-56
48615,784,-53,693,-215,-174,-67
48616,770,-63,712,-251,-186,-80
48617,767,-54,710,-307,-201,-97
48618,775,-22,693,-319,-222,-105
48619,795,-26,678,-307,-247,-105
48620,786,-40,685,-316,-259,-105
48621,771,-41,677,-301,-269,-108
48622,789,-39,689,-307,-284,-109
48623,767,-36,659,-317,-301,-104
48624,782,-26,665,-313,-318,-98
48625,784,-33,679,-295,-329,-86
48626,795,-24,662,-284,-338,-77
48627,824,-10,607,-275,-342,-67
48628,770,-27,605,-270,-333,-44
48629,836,-59,582,-219,-320,-16
48630,774,-88,626,-193,-291,-8
48631,867,-86,592,-171,-254,-10
48632,880,-53,602,-255,-219,-14
48633,822,-62,630,-305,-201,-34
48634,797,-39,646,-311,-185,-39
48635,756,-32,605,-336,-173,-24
48636,845,8,728,-337,-191,-16
48637,804,-9,729,-379,-214,2
48638,828,-24,715,-357,-259,14
48639,835,-25,720,-369,-290,16
48640,820,-12,654,-473,-311,18
48641,855,41,746,-789,-322,25
48642,863,38,834,-917,-373,65
48643,798,7,600,-1271,-442,117
48644,771,-37,783,-1580,-519,157
48645,696,-115,805,-1645,-638,193
48646,672,-223,877,-1596,-774,192
48647,713,-279,831,-1435,-903,147
48648,731,-335,685,-1467,-1012,54
48649,800,-424,750,-1093,-1138,-74
48650,850,-376,592,-730,-1229,-232
48651,811,-279,479,-847,-1253,-359
48652,819,-247,536,-849,-1251,-444
48653,802,-215,537,-686,-1262,-504
48654,755,-159,457,-658,-1269,-534
48655,821,-161,460,-396,-1274,-565
48656,848,-121,474,-205,-1290,-582
48657,860,-115,641,-315,-1279,-552
48658,773,-47,530,-444,-1316,-511
48659,793,-51,485,-415,-1349,-473
48660,747,-68,557,-260,-1386,-431
48661,858,-8,440,-88,-1409,-382
48662,846,14,402,-92,-1400,-293
48663,899,5,345,-58,-1380,-200
48664,850,-22,371,-90,-1344,-112
48665,896,-33,338,-32,-1303,-53
48666,902,-23,385,-75,-1260,-7
48667,902,-30,368,-158,-1225,46
48668,894,-78,295,-87,-1192,79
48669,890,-70,255,-67,-1131,104
48670,939,-69,219,21,-1061,116
48671,1063,-43,189,-4,-992,138
48672,836,-82,280,-56,-938,175
48673,953,-113,337,-63,-896,205
48674,945,-92,201,-147,-862,242
48675,785,-68,160,-276,-820,287
48676,780,8,133,-371,-748,335
48677,884,28,69,-485,-639,410
48678,931,10,2,-678,-513,495
48679,991,-182,97,-847,-379,562
48680,1105,-305,144,-910,-282,550
48681,1202,-502,251,-906,-228,472
48682,1139,-590,424,-814,-233,310
48683,965,-437,527,-616,-308,111
48684,1001,-263,517,-466,-401,-16
48685,962,-167,471,-415,-493,-58
48686,917,-79,419,-407,-582,-55
48687,921,-9,412,-410,-661,-18
48688,916,22,380,-361,-731,56
48689,850,-13,381,-341,-793,148
48690,938,-88,357,-284,-854,218
48691,831,-192,363,-215,-921,245
48692,965,-143,304,-132,-984,235
48693,859,-170,294,-123,-1018,228
48694,966,-129,272,-95,-1052,221
48695,900,-179,273,-58,-1085,221
48696,989,-152,331,75,-1129,208
48697,970,-179,340,208,-1197,194
48698,944,-192,280,350,-1275,165
48699,927,-181,179,445,-1324,130
48700,923,-216,95,471,-1326,93
48701,940,-207,72,445,-1300,58
48702,985,-193,65,411,-1269,28
48703,987,-177,69,352,-1236,9
48704,946,-143,154,326,-1213,16
48705,977,-95,201,335,-1220,41
48706,971,-87,228,360,-1243,88
48707,922,-100,292,471,-1307,151
48708,940,-103,217,612,-1392,212
48709,954,-135,122,730,-1438,272
48710,922,-158,80,875,-1451,315
48711,904,-273,69,1046,-1447,329
48712,949,-299,76,1232,-1447,298
48713,962,-297,120,1393,-1468,249
48714,959,-242,141,1520,-1513,207
48715,923,-254,101,1647,-1568,191
48716,944,-216,39,1740,-1605,184
48717,948,-230,15,1864,-1626,196
48718,996,-206,-78,1897,-1622,213
48719,1028,-221,-127,1859,-1575,233
48720,1059,-228,-160,1741,-1493,247
48721,1036,-265,-141,1675,-1407,256
48722,1037,-277,-121,1563,-1326,253
48723,1027,-300,-169,1449,-1255,245
48724,1041,-312,-169,1327,-1181,227
48725,1073,-293,-165,1175,-1106,208
48726,1058,-359,-146,1062,-1045,183
48727,1022,-361,-231,936,-974,149
48728,1052,-376,-232,769,-877,112
48729,1041,-359,-237,603,-778,77
48730,1013,-352,-225,513,-687,48
48731,1013,-340,-172,451,-616,21
48732,1009,-295,-149,394,-569,9
48733,996,-284,-139,373,-542,6
48734,995,-256,-146,344,-514,9
48735,1014,-275,-183,305,-476,15
48736,1000,-234,-149,283,-431,16
48737,983,-240,-107,265,-406,28
48738,961,-228,-119,242,-394,44
48739,952,-234,-93,218,-386,64
48740,966,-259,-72,202,-383,77
48741,965,-246,-63,218,-395,74
48742,958,-243,-74,233,-408,77
48743,963,-226,-80,237,-416,83
48744,968,-250,-100,240,-424,88
48745,971,-255,-113,235,-416,87
48746,980,-251,-147,214,-409,81
48747,979,-243,-157,216,-394,80
48748,981,-238,-177,211,-382,77
48749,975,-251,-209,206,-366,75
48750,975,-292,-190,199,-345,67
48751,973,-309,-176,207,-338,44
48752,973,-292,-180,217,-338,16
48753,972,-267,-183,213,-336,-4
48754,979,-254,-203,213,-330,-14
48755,985,-252,-226,211,-313,-14
48756,985,-249,-223,203,-284,-10
48757,986,-266,-193,201,-259,-13
48758,976,-278,-165,200,-240,-25
48759,965,-249,-151,210,-234,-41
48760,970,-232,-164,221,-226,-49
48761,975,-239,-168,226,-221,-52
48762,980,-229,-167,219,-214,-53
48763,967,-218,-171,209,-209,-47
48764,962,-226,-169,198,-203,-43
48765,957,-223,-165,184,-200,-37
48766,961,-239,-162,168,-197,-28
48767,958,-237,-175,155,-193,-24
48768,959,-236,-163,147,-191,-21
48769,946,-228,-147,145,-195,-16
48770,953,-231,-149,153,-209,-10
48771,955,-258,-162,158,-219,-5
48772,961,-258,-181,161,-222,-9
48773,957,-245,-181,156,-219,-9
48774,951,-247,-178,143,-217,-8
48775,950,-275,-175,137,-219,-10
48776,960,-273,-175,144,-224,-20
48777,958,-279,-189,151,-231,-30
48778,956,-271,-190,160,-235,-42
48779,972,-256,-208,164,-234,-50
48780,963,-255,-214,164,-221,-55
48781,953,-251,-192,163,-212,-57
48782,958,-231,-190,163,-210,-55
48783,958,-242,-190,156,-206,-48
48784,976,-242,-173,156,-206,-46
48785,956,-245,-191,149,-203,-43
48786,968,-274,-180,145,-198,-46
48787,975,-239,-186,142,-194,-50
48788,954,-245,-157,133,-193,-44
48789,948,-252,-147,134,-200,-41
48790,952,-238,-163,136,-210,-39
48791,943,-263,-146,136,-217,-35
48792,951,-244,-160,154,-235,-38
48793,949,-233,-167,153,-245,-30
48794,945,-246,-171,155,-254,-23
48795,951,-238,-199,153,-263,-14
48796,941,-266,-200,147,-266,-7
48797,936,-273,-197,144,-270,-12
48798,955,-241,-202,152,-279,-23
48799,960,-240,-226,142,-282,-17
48800,951,-280,-228,138,-279,-14
48801,961,-262,-258,137,-273,-25
48802,963,-244,-264,123,-254,-30
48803,965,-234,-287,116,-236,-31
48804,984,-247,-269,107,-218,-34
48805,976,-246,-257,94,-205,-39
48806,962,-234,-264,84,-191,-49
48807,961,-199,-275,72,-173,-46
48808,964,-183,-285,63,-151,-30
48809,957,-186,-277,53,-131,-11
48810,958,-201,-274,44,-112,4
48811,950,-208,-282,34,-96,13
48812,946,-211,-259,24,-84,16
48813,955,-205,-250,24,-79,18
48814,957,-219,-254,32,-79,21
48815,952,-222,-264,33,-77,25
48816,939,-229,-242,26,-73,23
48817,931,-205,-223,18,-79,21
48818,950,-213,-230,22,-91,24
48819,953,-214,-231,21,-102,30
48820,946,-223,-224,23,-104,35
48821,951,-228,-222,33,-105,39
48822,943,-246,-223,35,-104,44
48823,950,-240,-247,30,-103,41
48824,963,-242,-257,23,-97,40
48825,967,-243,-258,19,-87,43
48826,965,-258,-271,20,-79,46
48827,973,-265,-274,14,-67,46
48828,964,-265,-264,6,-53,47
48829,966,-276,-261,-2,-42,45
48830,965,-283,-269,-11,-33,39
48831,961,-278,-274,-18,-26,29
48832,963,-277,-258,-23,-15,22
48833,956,-276,-258,-25,-10,14
48834,946,-253,-263,-25,-4,9
48835,942,-243,-264,-30,4,10
48836,944,-234,-244,-35,9,15
48837,940,-241,-258,-32,11,23
48838,945,-243,-251,-31,16,26
48839,944,-234,-245,-32,21,25
48840,942,-243,-233,-40,21,29
48841,941,-248,-233,-44,24,32
48842,932,-254,-233,-44,23,28
48843,937,-243,-239,-38,20,20
48844,939,-230,-246,-39,18,20
48845,941,-234,-254,-43,20,25
48846,947,-244,-234,-41,21,26
48847,940,-254,-226,-33,15,23
48848,935,-240,-227,-30,8,21
48849,942,-258,-234,-28,0,20
48850,957,-266,-237,-30,-8,15
48851,964,-256,-247,-26,-11,7
48852,953,-249,-252,-24,-6,2
48853,958,-253,-240,-28,0,0
48854,967,-256,-210,-19,2,-6
48855,953,-258,-205,-6,-7,-15
48856,954,-239,-220,-4,-14,-21
48857,952,-252,-223,-11,-16,-22
48858,952,-271,-235,-24,-12,-29
48859,958,-258,-236,-33,-7,-41
48860,955,-263,-238,-49,-2,-48
48861,955,-247,-250,-67,3,-55
48862,947,-233,-257,-83,14,-59
48863,948,-237,-273,-92,20,-57
48864,960,-239,-264,-98,25,-53
48865,965,-242,-273,-105,34,-51
48866,957,-255,-266,-116,49,-53
48867,956,-237,-268,-125,60,-54
48868,949,-224,-255,-130,69,-53
48869,953,-206,-246,-125,76,-46
48870,955,-206,-247,-122,80,-32
48871,951,-273,-243,-133,91,-24
48872,967,-241,-239,-133,106,-30
48873,957,-205,-219,-130,120,-29
48874,958,-210,-222,-133,126,-17
48875,951,-219,-231,-139,132,0
48876,962,-233,-228,-152,141,9
48877,970,-239,-234,-163,150,12
48878,964,-254,-227,-168,158,11
48879,971,-254,-212,-163,158,7
48880,965,-264,-223,-157,151,3
48881,962,-258,-237,-158,149,0
48882,973,-246,-250,-167,155,0
48883,980,-250,-260,-170,161,0
48884,971,-281,-264,-172,172,-9
48885,970,-270,-257,-176,188,-26
48886,968,-242,-229,-179,201,-41
48887,958,-247,-231,-180,207,-45
48888,949,-244,-224,-186,217,-51
48889,939,-260,-197,-190,221,-67
48890,939,-219,-194,-185,214,-93
48891,950,-207,-187,-171,195,-105
48892,950,-230,-202,-162,177,-114
48893,946,-236,-217,-158,171,-126
48894,947,-217,-212,-151,173,-139
48895,959,-186,-204,-130,170,-144
48896,966,-195,-222,-104,165,-141
48897,960,-216,-219,-91,169,-139
48898,971,-224,-217,-79,177,-147
48899,974,-186,-197,-75,182,-155
48900,962,-179,-185,-77,179,-153
48901,975,-184,-185,-72,173,-145
48902,971,-215,-185,-63,172,-142
48903,966,-225,-184,-46,173,-150
48904,977,-199,-209,-28,178,-161
48905,975,-188,-187,-44,185,-153
48906,972,-194,-179,-66,190,-149
48907,972,-211,-158,-81,190,-152
48908,988,-153,-158,-88,184,-156
48909,969,-149,-158,-88,170,-142
48910,965,-184,-178,-84,160,-130
48911,973,-175,-183,-84,157,-129
48912,986,-163,-194,-88,158,-124
48913,981,-154,-192,-88,161,-117
48914,973,-155,-184,-86,163,-107
48915,977,-160,-175,-86,167,-97
48916,988,-133,-168,-75,168,-87
48917,977,-124,-158,-77,163,-68
48918,982,-152,-155,-71,156,-51
48919,985,-161,-165,-66,149,-44
48920,975,-157,-174,-65,144,-39
48921,987,-151,-169,-65,142,-32
48922,986,-133,-156,-71,141,-21
48923,982,-140,-155,-68,135,-7
48924,980,-139,-151,-58,125,12
48925,974,-138,-146,-51,112,29
48926,851,156,-110,-75,100,51
48927,963,-17,-20,-94,100,221
48928,910,-524,-105,-44,30,221
48929,985,-307,-144,43,7,84
48930,1002,-152,-156,50,7,27
48931,985,-181,-124,21,-9,37
48932,991,-212,-162,25,-28,43
48933,1013,-215,-218,37,-26,34
48934,1025,-226,-213,22,-9,24
48935,998,-233,-201,0,1,11
48936,992,-191,-186,-9,4,-2
48937,983,-191,-187,-12,7,-1
48938,982,-205,-154,-11,14,-1
48939,980,-213,-149,-16,18,-6
48940,965,-196,-128,-25,16,-12
48941,967,-195,-118,-39,9,-21
48942,966,-189,-109,-51,-2,-30
48943,968,-172,-113,-51,-17,-39
48944,969,-160,-111,-48,-28,-40
48945,969,-162,-114,-49,-39,-35
48946,971,-173,-106,-48,-52,-30
48947,979,-183,-115,-42,-70,-30
48948,977,-181,-122,-42,-81,-30
48949,974,-177,-130,-43,-93,-32
48950,978,-198,-145,-40,-104,-35
48951,957,-182,-145,-33,-111,-37
48952,924,-213,-117,-5,-128,-44
48953,939,-215,-128,30,-149,-66
48954,970,-208,-153,60,-168,-99
48955,979,-219,-164,70,-186,-133
48956,963,-168,-193,74,-202,-160
48957,969,-155,-170,91,-205,-171
48958,974,-154,-173,101,-208,-175
48959,966,-144,-191,87,-219,-178
48960,977,-137,-173,88,-231,-174
48961,1006,-121,-188,103,-247,-161
48962,962,-125,-169,112,-256,-149
48963,1008,-112,-230,104,-256,-133
48964,953,-151,-191,74,-242,-120
48965,965,-174,-193,66,-231,-123
48966,990,-159,-215,45,-231,-136
48967,982,-190,-198,37,-231,-154
48968,975,-168,-166,35,-238,-172
48969,988,-145,-175,50,-253,-183
48970,980,-111,-203,61,-264,-183
48971,947,-128,-166,67,-264,-172
48972,1000,-174,-210,86,-259,-163
48973,1004,-141,-190,91,-259,-161
48974,973,-109,-179,91,-260,-152
48975,965,-97,-215,85,-263,-139
48976,991,-102,-219,101,-267,-128
48977,954,-81,-223,102,-270,-114
48978,1008,-117,-254,121,-266,-93
48979,958,-91,-262,107,-248,-75
48980,751,-29,-715,132,-210,-44
48981,1027,-248,89,165,-139,84
48982,1045,-487,-175,101,-303,-46
48983,1033,-68,-565,120,-355,-247
48984,966,147,-492,35,-197,-228
48985,996,32,-231,-30,-59,-82
48986,1008,-142,-237,1,-15,19
48987,1005,-167,-219,19,5,45
48988,978,-177,-180,-16,2,36
48989,949,-177,-190,-37,-23,9
48990,961,-161,-252,-25,-40,-19
48991,982,-135,-284,-8,-24,-35
48992,1006,-155,-271,-12,8,-39
48993,1019,-195,-227,-22,30,-49
48994,999,-191,-217,-7,31,-74
48995,988,-187,-245,24,32,-96
48996,977,-186,-262,42,44,-117
48997,995,-159,-257,39,60,-133
48998,1001,-153,-260,22,70,-139
48999,985,-160,-251,9,79,-140
49000,981,-181,-219,-2,93,-140
49001,995,-195,-207,-9,94,-158
49002,996,-176,-234,-14,95,-186
49003,978,-134,-223,-13,99,-205
49004,978,-101,-204,-16,111,-200
49005,976,-115,-178,-23,114,-182
49006,980,-133,-175,-32,105,-170
49007,964,-139,-180,-30,91,-168
49008,961,-132,-182,-18,72,-174
49009,961,-124,-181,-4,56,-179
49010,970,-110,-189,-4,45,-180
49011,974,-93,-203,-9,39,-180
49012,979,-88,-213,-16,37,-177
49013,971,-115,-203,-33,39,-172
49014,975,-113,-205,-39,40,-178
49015,978,-107,-213,-47,42,-183
49016,972,-115,-203,-53,49,-191
49017,975,-117,-182,-47,47,-199
49018,973,-139,-190,-30,42,-207
49019,963,-160,-218,-5,38,-226
49020,986,-140,-223,0,46,-254
49021,973,-140,-222,-4,56,-271
49022,1000,-116,-232,-24,66,-284
49023,1014,-88,-246,-46,81,-293
49024,1012,-81,-215,-53,100,-278
49025,1002,-98,-200,-53,102,-282
49026,1009,-83,-176,-46,100,-292
49027,1012,-42,-184,-44,100,-285
49028,1006,-10,-191,-61,98,-279
49029,995,8,-160,-42,94,-255
49030,977,46,-134,-37,83,-221
49031,977,32,-139,-35,57,-177
49032,971,14,-155,-35,34,-139
49033,978,-10,-152,-25,23,-112
49034,988,-39,-143,-7,9,-97
49035,990,-58,-160,30,-14,-96
49036,984,-76,-197,47,-26,-105
49037,976,-74,-193,53,-28,-115
49038,997,-71,-203,57,-28,-126
49039,1005,-74,-221,51,-23,-135
49040,1010,-80,-215,36,-17,-147
49041,1007,-99,-222,12,-9,-161
49042,992,-79,-211,10,0,-180
49043,986,-47,-196,16,6,-191
49044,991,-22,-191,10,7,-185
49045,982,-11,-185,-4,8,-173
49046,977,-29,-180,-30,6,-156
49047,975,-47,-169,-33,3,-145
49048,972,-19,-153,-15,-5,-146
49049,975,3,-166,-3,-20,-138
49050,978,25,-156,-2,-33,-117
49051,982,38,-168,-7,-44,-86
49052,985,24,-184,-1,-46,-53
49053,984,20,-192,-1,-43,-25
49054,990,-8,-205,-11,-39,-4
49055,995,-30,-223,-25,-32,8
49056,1004,-32,-198,-22,-25,11
49057,1002,-36,-213,-15,-21,11
49058,1006,-40,-219,-17,-14,11
49059,999,-40,-200,-23,-5,14
49060,992,-60,-181,-31,-3,9
49061,985,-48,-178,-36,-9,0
49062,985,-20,-203,-37,-13,-9
49063,989,-19,-192,-42,-13,-8
49064,993,-13,-192,-57,-14,0
49065,980,-29,-191,-65,-14,7
49066,979,-26,-175,-60,-14,11
49067,986,-25,-167,-49,-21,17
49068,984,-16,-181,-47,-25,22
49069,981,-27,-180,-46,-25,28
49070,989,-27,-175,-49,-26,34
49071,978,-30,-175,-49,-30,40
49072,985,-21,-174,-47,-31,45
49073,970,-39,-176,-51,-34,53
49074,951,3,-135,-63,-36,73
49075,994,-37,-89,-131,-74,137
49076,1057,-86,-248,-217,-105,131
49077,1003,-67,-285,-203,-77,67
49078,972,-5,-244,-133,-36,37
49079,966,4,-208,-67,-2,52
49080,1019,-19,-178,-73,7,84
49081,1014,-72,-181,-105,0,93
49082,1004,-85,-170,-116,-9,72
49083,998,-69,-177,-86,-21,40
49084,997,-41,-210,-47,-25,23
49085,1009,-21,-222,-37,-17,26
49086,1001,-40,-205,-60,-7,37
49087,1004,-51,-204,-83,-4,40
49088,984,-55,-207,-84,-4,40
49089,925,0,-171,-73,2,46
49090,993,-44,-125,-125,-30,74
49091,1017,-68,-236,-166,-56,59
49092,1031,-64,-223,-150,-43,28
49093,965,-32,-226,-95,-19,13
49094,988,-8,-172,-38,1,18
49095,990,-38,-169,-22,3,36
49096,996,-69,-156,-33,-6,39
49097,1000,-63,-163,-40,-24,27
49098,972,-34,-172,-23,-33,14
49099,958,-33,-136,-18,-44,32
49100,1003,-53,-150,-47,-72,42
49101,1004,-48,-203,-66,-84,28
49102,1017,-45,-216,-56,-71,18
49103,1006,-39,-223,-25,-58,14
49104,987,-16,-208,0,-45,24
49105,989,-5,-193,-4,-41,45
49106,1002,-11,-199,-33,-48,58
49107,991,-28,-192,-51,-56,67
49108,993,-30,-210,-49,-61,72
49109,982,-38,-205,-35,-62,70
49110,993,-58,-197,-16,-57,67
49111,989,-74,-175,-14,-55,66
49112,991,-67,-164,-11,-59,52
49113,1015,-20,-184,-9,-67,49
49114,1000,-22,-195,-4,-72,51
49115,1011,-26,-208,14,-69,60
49116,983,-22,-204,16,-61,71
49117,990,-1,-219,16,-56,83
49118,992,-40,-207,-6,-46,102
49119,999,-47,-194,-26,-44,105
49120,998,-51,-212,-16,-47,97
49121,999,-66,-226,-6,-43,86
49122,996,-65,-226,0,-34,77
49123,989,-69,-215,0,-25,67
49124,985,-76,-201,0,-23,55
49125,988,-77,-204,2,-28,36
49126,982,-61,-212,2,-32,18
49127,983,-56,-225,0,-30,10
49128,987,-45,-226,-11,-21,5
49129,987,-56,-219,-21,-9,2
49130,986,-43,-220,-25,-3,1
49131,984,-52,-201,-26,0,4
49132,984,-60,-191,-24,1,0
49133,995,-69,-189,-19,-1,-5
49134,988,-61,-196,-10,-7,-16
49135,990,-67,-204,-1,-6,-22
49136,990,-66,-197,0,-4,-28
49137,991,-53,-186,0,-7,-34
49138,974,-42,-195,1,-8,-37
49139,987,-43,-200,4,-9,-34
49140,997,-49,-183,5,-8,-34
49141,994,-58,-189,3,-9,-36
49142,983,-52,-198,-4,-11,-39
49143,977,-42,-193,-4,-15,-39
49144,977,-54,-205,-4,-16,-39
49145,1002,-61,-203,-14,-18,-43
49146,1010,-55,-214,-32,-18,-50
49147,991,-21,-228,-37,-15,-63
49148,986,-33,-207,-23,-7,-63
49149,988,-27,-206,-14,1,-60
49150,972,-11,-194,-14,2,-54
49151,970,-18,-202,-11,1,-45
49152,987,-20,-182,-7,5,-35
49153,988,-17,-190,-7,4,-28
49154,977,-14,-199,-3,0,-22
49155,994,-22,-198,6,-2,-18
49156,994,-42,-182,14,-4,-15
49157,992,-39,-187,11,-10,-18
49158,986,-50,-195,10,-12,-21
49159,995,-33,-192,4,-14,-25
49160,995,-47,-193,0,-14,-25
49161,1000,-38,-193,-11,-16,-27
49162,992,-35,-205,-22,-9,-29
49163,977,-49,-195,-20,-5,-28
49164,989,-37,-196,-21,-2,-28
49165,984,-18,-190,-27,-5,-30
49166,993,-33,-192,-36,-12,-28
49167,981,-17,-196,-54,-16,-27
49168,959,-31,-212,-57,-15,-27
49169,983,-18,-201,-55,-12,-23
49170,989,-19,-209,-63,-12,-18
49171,972,-54,-203,-71,-11,-13
49172,989,-19,-206,-67,-9,-25
49173,993,-29,-209,-60,-10,-29
49174,999,-33,-218,-62,-9,-26
49175,945,-26,-208,-66,-7,-28
49176,957,-39,-201,-53,-8,-32
49177,1013,-34,-202,-48,-2,-37
49178,997,-30,-240,-63,2,-35
49179,1014,-40,-216,-65,4,-35
49180,1018,-33,-217,-69,7,-44
49181,1034,-23,-197,-82,11,-48
49182,990,-17,-214,-94,12,-52
49183,1011,-1,-177,-91,11,-46
49184,978,6,-185,-85,6,-35
49185,978,-49,-175,-51,6,-39
49186,968,2,-151,-44,2,-40
49187,985,16,-178,-47,-7,-29
49188,955,22,-182,-54,-10,-16
49189,960,-32,-184,-60,-9,0
49190,974,-5,-183,-63,-10,5
49191,1005,-14,-207,-59,-11,7
49192,981,-41,-175,-62,-9,5
49193,1048,-41,-199,-60,-9,-2
49194,1021,-1,-185,-60,-9,-2
49195,1004,-8,-188,-58,-11,5
49196,1004,11,-207,-55,-9,16
49197,1004,-1,-218,-44,-4,28
49198,991,0,-206,-45,2,32
49199,999,-1,-195,-52,0,37
49200,993,-2,-201,-64,0,41
49201,978,-9,-190,-69,1,43
49202,988,-2,-177,-68,0,42
49203,982,6,-200,-63,-1,47
49204,990,-4,-204,-59,2,53
49205,983,-14,-211,-60,9,60
49206,1006,-21,-216,-63,18,62
49207,1005,-44,-206,-60,29,56
49208,1014,-38,-212,-53,40,48
49209,1016,-38,-226,-49,55,50
49210,1018,-44,-223,-46,70,51
49211,1003,-60,-228,-48,88,50
49212,1002,-55,-221,-55,103,44
49213,1003,-55,-223,-63,117,42
49214,1000,-51,-225,-73,135,45
49215,1004,-54,-219,-83,153,45
49216,1003,-50,-205,-91,169,45
49217,1002,-41,-189,-100,186,51
49218,989,-44,-182,-109,197,58
49219,1007,-51,-174,-113,201,63
49220,1017,-27,-180,-114,204,65
49221,1003,-36,-177,-120,208,70
49222,991,-23,-173,-136,212,72
49223,991,-14,-181,-159,214,80
49224,1007,0,-147,-186,214,91
49225,1002,-27,-147,-206,210,108
49226,1003,-40,-138,-203,204,109
49227,999,-28,-150,-179,198,103
49228,999,-32,-162,-154,194,99
49229,995,-19,-155,-136,195,94
49230,1018,-16,-165,-131,196,93
49231,266,107,-917,-114,226,112
49232,1045,59,-97,193,446,175
49233,1248,43,-30,339,539,261
49234,1185,-68,-174,156,435,253
49235,1050,-27,-189,-45,373,245
49236,978,-38,-121,-124,357,261
49237,972,-53,-71,-131,321,233
49238,966,-70,-59,-125,270,174
49239,1004,-39,-69,-121,215,116
49240,997,-3,-93,-128,179,89
49241,995,-16,-101,-128,160,94
49242,1006,7,-102,-115,147,109
49243,1004,9,-122,-98,133,124
49244,990,-15,-123,-88,126,125
49245,1017,-24,-129,-87,121,116
49246,1013,-42,-128,-90,114,103
49247,1005,-41,-126,-91,107,85
49248,1004,-47,-121,-83,98,61
49249,1023,-38,-128,-69,91,42
49250,1021,-39,-137,-62,92,35
49251,1018,-36,-131,-66,98,30
49252,1016,-26,-135,-76,99,31
49253,1012,-25,-140,-90,104,41
49254,1012,-33,-121,-105,108,47
49255,1008,-35,-101,-117,105,47
49256,1011,-33,-94,-129,100,47
49257,996,-35,-93,-137,98,49
49258,993,-22,-75,-140,94,51
49259,992,-19,-80,-139,84,61
49260,988,-26,-80,-132,77,70
49261,996,-28,-77,-127,72,79
49262,996,-30,-79,-121,64,82
49263,999,-46,-86,-114,52,83
49264,993,-58,-83,-110,45,77
49265,1003,-59,-86,-105,37,65
49266,1009,-47,-84,-98,32,58
49267,998,-39,-96,-88,28,57
49268,999,-40,-104,-74,23,57
49269,1012,-37,-106,-63,22,56
49270,1012,-51,-119,-60,30,57
49271,1026,-58,-127,-70,39,58
49272,1027,-42,-124,-74,44,57
49273,1019,-37,-129,-70,50,58
49274,1001,-39,-128,-65,60,59
49275,1012,-33,-118,-65,66,62
49276,1021,-35,-122,-77,70,67
49277,1020,-49,-116,-93,77,73
49278,1001,-43,-101,-107,82,72
49279,1014,-37,-102,-111,84,71
49280,1013,-48,-90,-117,86,75
49281,1009,-55,-76,-123,82,79
49282,1004,-40,-73,-132,74,74
49283,999,-30,-67,-138,70,69
49284,997,-10,-56,-142,60,71
49285,997,-7,-67,-142,46,79
49286,993,-12,-76,-140,41,87
49287,1004,-14,-81,-140,42,94
49288,993,5,-67,-140,44,108
49289,992,32,-75,-139,42,125
49290,992,42,-80,-136,43,142
49291,991,34,-73,-126,44,168
49292,994,39,-62,-106,35,193
49293,997,29,-67,-81,23,225
49294,982,18,-71,-45,13,242
49295,997,30,-75,-8,7,249
49296,1004,52,-77,17,7,259
49297,1012,50,-73,28,6,274
49298,1025,54,-74,21,1,298
49299,1017,51,-65,51,-9,308
49300,1035,28,-46,81,-18,294
49301,1046,22,-6,36,-27,278
49302,1019,43,-12,-27,-51,303
49303,1012,13,-14,-63,-84,360
49304,1009,-15,-29,-74,-105,405
49305,995,-46,-44,-74,-112,428
49306,1040,-16,-50,-56,-107,443
49307,1051,-28,-53,-37,-105,458
49308,1094,-66,-45,-23,-114,471
49309,1083,-79,-39,11,-134,474
49310,1071,-89,-35,58,-157,473
49311,1056,-129,-45,109,-180,452
49312,1068,-88,-15,149,-194,430
49313,1182,-207,-56,158,-201,417
49314,1172,-313,-80,104,-197,384
49315,1165,-330,-147,73,-179,321
49316,1178,-283,-155,57,-157,261
49317,1162,-274,-156,95,-135,225
49318,1182,-260,-142,84,-109,189
49319,1197,-285,-161,32,-86,156
49320,1187,-300,-173,-25,-60,136
49321,1170,-351,-195,-86,-30,118
49322,1196,-369,-212,-134,9,78
49323,1220,-380,-170,-116,55,29
49324,1215,-409,-119,-80,94,-21
49325,1212,-420,-118,-60,123,-72
49326,1201,-414,-142,-55,155,-119
49327,1206,-380,-154,-42,189,-156
49328,1230,-338,-158,-42,227,-174
49329,1195,-290,-153,-25,277,-186
49330,1159,-264,-145,24,333,-221
49331,1133,-201,-103,43,379,-265
49332,1152,-115,-68,24,406,-283
49333,1180,-76,-68,-39,403,-266
49334,1151,-68,-20,-96,387,-250
49335,1127,-24,-5,-137,359,-245
49336,1104,14,6,-160,329,-224
49337,1116,67,8,-206,306,-178
49338,1126,113,15,-275,289,-114
49339,1150,121,32,-319,263,-46
49340,1167,116,59,-358,232,21
49341,1170,75,51,-382,190,79
49342,1178,63,-8,-435,161,114
49343,1171,39,-30,-434,138,107
49344,1165,-1,-50,-422,121,70
49345,1177,-36,-68,-438,109,27
49346,1161,-39,-70,-457,109,2
49347,1144,-60,-62,-481,119,-1
49348,1152,-109,-72,-503,140,2
49349,1167,-149,-88,-497,170,0
49350,1169,-144,-95,-483,204,-11
49351,1166,-214,-136,-514,245,-18
49352,1159,-195,-143,-514,299,-63
49353,1149,-226,-85,-473,340,-116
49354,1128,-209,-61,-403,351,-178
49355,1135,-238,-80,-350,353,-235
49356,1139,-219,-68,-302,362,-296
49357,1139,-256,-29,-259,354,-361
49358,1122,-224,-28,-231,322,-425
49359,1114,-208,-64,-203,306,-459
49360,1118,-197,-87,-182,339,-470
49361,1149,-147,-82,-153,396,-460
49362,1129,-145,-52,-128,457,-424
49363,1114,-154,-20,-114,499,-379
49364,1097,-133,3,-96,528,-342
49365,1077,-135,6,-88,545,-317
49366,1071,-118,19,-102,562,-301
49367,1060,-91,53,-133,570,-293
49368,1024,-84,74,-158,565,-295
49369,1008,-71,87,-164,553,-304
49370,989,-58,81,-162,536,-319
49371,962,-47,66,-167,522,-337
49372,948,-69,67,-186,522,-357
49373,912,-119,27,-231,486,-394
49374,981,-83,-121,-248,510,-431
49375,980,-80,2,-203,545,-483
49376,1035,-72,20,-210,536,-497
49377,992,-103,-42,-203,504,-512
49378,1040,-38,32,-156,464,-526
49379,972,19,-82,-114,419,-492
49380,1129,150,16,66,707,-375
49381,916,-269,-266,-101,870,-331
49382,865,-4,61,-64,1007,-474
49383,784,144,110,1,1013,-483
49384,776,85,81,121,979,-429
49385,739,74,112,212,973,-419
49386,731,122,133,240,987,-419
49387,720,144,141,265,1018,-402
49388,711,180,170,287,1048,-378
49389,694,217,203,306,1072,-329
49390,672,214,243,308,1084,-261
49391,654,224,254,303,1085,-192
49392,669,223,282,287,1071,-114
49393,631,199,276,260,1041,-41
49394,623,186,261,235,1002,16
49395,622,54,291,235,946,14
49396,687,88,307,232,838,-43
49397,727,134,210,204,713,-106
49398,741,139,220,189,618,-126
49399,733,70,197,187,532,-100
49400,784,67,258,173,439,-91
49401,776,58,295,179,335,-81
49402,801,-12,232,168,228,-36
49403,821,6,199,186,176,-16
49404,833,0,238,165,128,9
49405,822,-92,210,198,37,-35
49406,813,-96,193,297,-38,-140
49407,892,-7,170,347,-98,-222
49408,905,28,176,345,-153,-229
49409,883,-12,189,340,-200,-205
49410,929,13,134,369,-226,-188
49411,955,49,156,339,-228,-128
49412,923,23,203,315,-228,-44
49413,916,-41,204,298,-261,-2
49414,923,-3,200,292,-296,0
49415,941,9,156,275,-317,11
49416,921,1,140,249,-336,20
49417,923,14,149,235,-348,13
49418,951,2,126,248,-357,0
49419,942,-2,142,251,-352,-4
49420,959,-18,113,223,-343,-11
49421,945,-6,117,205,-332,-13
49422,939,22,90,186,-319,-7
49423,923,47,123,166,-312,11
49424,920,47,97,129,-324,44
49425,915,12,112,117,-343,62
49426,945,-47,101,161,-363,48
49427,958,-29,78,163,-378,11
49428,963,-7,59,152,-378,-18
49429,948,4,49,139,-361,-42
49430,963,23,-11,119,-341,-49
49431,940,35,13,91,-308,-44
49432,937,19,34,74,-282,-32
49433,931,27,20,60,-264,-32
49434,921,17,56,55,-251,-35
49435,923,21,67,37,-256,-42
49436,887,23,109,4,-284,-52
49437,881,2,121,-18,-336,-58
49438,866,28,132,-34,-392,-68
49439,871,33,116,-49,-447,-72
49440,853,61,114,-79,-486,-76
49441,834,86,88,-107,-513,-69
49442,823,96,101,-136,-536,-42
49443,822,122,85,-163,-562,-14
49444,804,87,86,-204,-585,23
49445,808,72,99,-213,-618,39
49446,808,110,115,-242,-658,53
49447,773,89,105,-271,-706,72
49448,775,81,86,-271,-752,65
49449,742,99,65,-280,-782,57
49450,738,94,77,-280,-804,61
49451,724,102,52,-285,-828,58
49452,721,175,72,-271,-844,67
49453,714,173,82,-252,-873,98
49454,703,162,58,-233,-892,133
49455,682,158,55,-196,-889,163
49456,664,179,14,-150,-867,189
49457,651,182,67,-101,-816,220
49458,648,191,77,-49,-793,261
49459,658,192,89,4,-779,298
49460,669,205,73,46,-767,335
49461,687,213,37,94,-751,375
49462,710,186,24,122,-714,417
49463,729,139,8,142,-665,456
49464,757,68,-9,163,-611,477
49465,811,32,-12,188,-559,483
49466,858,2,-46,206,-520,482
49467,908,-36,-63,216,-486,480
49468,962,-71,-108,200,-459,469
49469,978,-123,-132,173,-434,445
49470,1035,-177,-138,157,-396,408
49471,1067,-260,-132,107,-353,353
49472,1048,-330,-181,53,-304,247
49473,1136,-286,-183,16,-206,116
49474,1095,-503,466,72,-82,-34
49475,1199,-28,150,76,-399,-154
49476,1189,100,186,79,-400,-135
49477,996,-300,-333,33,-424,-65
49478,1103,-208,-393,46,-246,-151
49479,1099,-47,-227,64,-46,-238
49480,1136,-172,100,35,-107,-368
49481,1127,266,53,200,-476,-452
49482,1065,243,-295,286,-672,-314
49483,1072,173,-386,268,-607,-165
49484,1075,83,-315,221,-440,-134
49485,1053,110,-180,197,-331,-160
49486,1053,114,-114,200,-310,-183
49487,1054,140,-125,177,-329,-186
49488,1041,180,-170,133,-324,-170
49489,1024,188,-170,92,-284,-128
49490,1036,181,-158,86,-238,-74
49491,1062,142,-151,88,-198,-26
49492,1081,114,-139,80,-162,4
49493,1091,93,-121,70,-131,21
49494,1101,93,-82,61,-107,27
49495,1096,85,-62,64,-95,29
49496,1101,96,-58,71,-90,24
49497,1083,99,-72,70,-84,30
49498,1102,65,-107,72,-61,37
49499,1158,239,45,78,-70,44
49500,1106,81,-51,51,-131,128
49501,1101,25,-97,9,-154,145
49502,1133,31,-76,-25,-147,119
49503,1137,20,-68,-35,-144,95
49504,1147,3,-64,-30,-149,81
49505,1151,6,-92,-27,-152,68
49506,1158,21,-110,-23,-140,65
49507,1161,28,-113,-18,-120,70
49508,1169,6,-106,-15,-99,74
49509,1161,-6,-92,-25,-81,73
49510,1148,-2,-73,-43,-70,66
49511,1148,17,-78,-37,-66,52
49512,1144,29,-78,-15,-60,39
49513,1141,54,-68,2,-56,28
49514,1145,73,-53,8,-58,18
49515,1134,89,-32,7,-68,11
49516,1118,109,-21,4,-79,10
49517,1114,125,-28,10,-87,18
49518,1102,145,-26,7,-90,35
49519,1095,156,-37,16,-88,63
49520,1095,162,-59,34,-85,93
49521,1106,160,-76,50,-81,124
49522,1132,147,-92,63,-79,156
49523,1146,117,-106,63,-70,189
49524,1150,83,-99,64,-53,214
49525,1160,62,-103,74,-38,228
49526,1166,40,-97,85,-25,235
49527,1196,28,-86,92,-15,240
49528,1203,24,-90,92,-6,243
49529,1212,2,-86,100,-1,241
49530,1225,-12,-92,107,6,231
49531,1245,-21,-80,106,11,219
49532,1245,-29,-86,95,16,207
49533,1251,-38,-87,88,16,194
49534,1252,-45,-88,88,18,177
49535,1257,-58,-100,81,23,163
49536,1267,-63,-106,58,40,154
49537,1279,-74,-111,28,60,148
49538,1278,-82,-118,15,79,135
49539,1279,-90,-127,14,93,116
49540,1277,-111,-129,7,106,89
49541,1274,-110,-116,-21,117,60
49542,1274,-87,-117,-51,128,30
49543,1270,-80,-127,-70,137,3
49544,1258,-68,-121,-79,144,-23
49545,1261,-46,-133,-82,149,-47
49546,1252,-28,-143,-91,160,-66
49547,1255,-15,-154,-107,172,-83
49548,1254,-23,-156,-121,188,-99
49549,1242,-28,-181,-130,208,-115
49550,1231,-23,-184,-135,238,-133
49551,1218,-8,-178,-144,277,-143
49552,1206,13,-166,-157,314,-142
49553,1191,23,-157,-164,351,-131
49554,1180,31,-160,-157,384,-124
49555,1166,44,-161,-155,413,-119
49556,1152,55,-162,-173,442,-112
49557,1144,59,-153,-197,471,-104
49558,1133,59,-151,-207,500,-98
49559,1120,57,-151,-210,529,-98
49560,1102,68,-135,-212,560,-98
49561,1094,73,-127,-218,586,-95
49562,1076,70,-116,-228,611,-88
49563,1057,49,-105,-252,636,-81
49564,1041,51,-90,-271,658,-86
49565,1022,55,-84,-282,679,-88
49566,1012,57,-73,-291,700,-88
49567,1007,62,-27,-289,705,-99
49568,979,99,24,-298,667,-70
49569,966,-11,-11,-303,624,-75
49570,945,-14,27,-268,587,-173
49571,940,36,119,-235,527,-193
49572,940,96,122,-189,395,-224
49573,1101,319,240,-165,410,-94
49574,781,-518,-237,-266,504,-168
49575,848,249,44,-258,617,-383
49576,822,141,-30,-239,632,-361
49577,807,-16,-18,-258,668,-239
49578,847,219,40,-225,722,-240
49579,815,253,103,-245,733,-132
49580,767,136,90,-275,707,4
49581,734,39,127,-284,686,49
49582,754,54,179,-268,638,10
49583,752,103,171,-273,566,-4
49584,737,89,160,-289,505,11
49585,728,92,140,-284,466,24
49586,736,87,162,-263,436,40
49587,729,69,170,-247,403,53
49588,738,66,162,-231,369,58
49589,727,64,160,-217,337,63
49590,717,52,175,-197,309,68
49591,709,46,169,-178,277,79
49592,710,55,179,-156,244,86
49593,720,65,182,-128,211,101
49594,716,64,183,-105,179,121
49595,740,74,178,-83,139,143
49596,752,62,171,-72,97,172
49597,757,38,162,-69,52,193
49598,766,20,158,-62,11,208
49599,776,-5,170,-48,-19,213
49600,767,-27,183,-32,-46,210
49601,772,-39,196,-14,-77,199
49602,779,-36,183,5,-109,184
49603,804,-67,316,39,-133,166
49604,946,31,216,-13,-308,162
49605,774,59,-52,-63,-340,211
49606,792,-63,195,-23,-235,275
49607,839,3,150,40,-212,277
49608,859,-20,121,33,-223,303
49609,869,-45,99,37,-220,326
49610,885,-84,83,51,-195,326
49611,1003,-44,125,86,-156,313
49612,983,35,573,170,-196,246
49613,978,-100,272,-11,-556,337
49614,919,-191,35,-75,-714,285
49615,930,-135,8,-27,-685,159
49616,965,-65,53,45,-627,74
49617,997,-38,55,109,-599,49
49618,1024,-19,68,125,-594,63
49619,1036,-35,75,126,-611,92
49620,1034,-49,19,62,-625,104
49621,1052,-73,-4,11,-625,99
49622,1200,-130,-52,-126,-593,39
49623,994,-121,-24,-155,-532,-51
49624,955,-104,101,-96,-525,-119
49625,968,-73,44,12,-546,-133
49626,1017,-60,-11,82,-528,-112
49627,1067,-41,-40,118,-485,-93
49628,1085,-25,-53,121,-436,-82
49629,1085,-36,-45,122,-394,-77
49630,1078,-32,-52,127,-357,-77
49631,1101,-50,-52,144,-322,-77
49632,1107,-78,-58,140,-288,-75
49633,1103,-75,-66,129,-261,-79
49634,1114,-71,-63,135,-237,-93
49635,1097,-68,-76,122,-207,-120
49636,1100,-39,-79,111,-184,-149
49637,1094,-6,-77,86,-166,-165
49638,1105,-10,-95,84,-153,-172
49639,1095,-20,-113,86,-133,-184
49640,1106,-10,-103,78,-113,-203
49641,1119,2,-63,53,-100,-210
49642,1078,9,-29,27,-95,-221
49643,1060,31,9,-7,-100,-237
49644,1057,112,63,-42,-105,-233
49645,1039,158,52,-95,-119,-195
49646,1153,179,24,-189,-114,-123
49647,999,216,-26,-272,-107,-35
49648,1028,134,-11,-338,-80,60
49649,1016,169,41,-358,-52,126
49650,926,127,44,-291,-32,182
49651,835,81,71,-212,-24,232
49652,766,24,89,-46,-23,245
49653,812,34,99,137,-24,214
49654,855,71,101,258,-34,172
49655,926,120,163,330,-60,161
49656,980,173,159,332,-112,174
49657,1003,193,160,273,-170,204
49658,1065,216,160,211,-237,242
49659,1112,219,140,156,-308,290
49660,1160,205,79,74,-366,336
49661,1237,192,33,2,-408,366
49662,1310,166,-51,-58,-441,387
49663,1399,154,-144,-109,-463,404
49664,1485,140,-264,-180,-461,415
49665,1525,97,-398,-259,-421,420
49666,1514,9,-532,-336,-320,412
49667,1478,-53,-596,-331,-156,386
49668,1453,-77,-586,-296,57,350
49669,1397,-88,-494,-235,254,309
49670,1315,-101,-379,-177,400,275
49671,1214,-74,-291,-114,496,240
49672,1127,-17,-119,-71,526,216
49673,1042,20,-45,-42,519,205
49674,935,68,-5,-25,532,217
49675,873,113,91,13,553,241
49676,809,169,200,66,548,282
49677,770,178,281,93,506,350
49678,724,146,324,102,440,423
49679,687,112,363,116,364,478
49680,678,93,407,127,288,515
49681,675,59,426,131,203,543
49682,701,39,439,142,98,564
49683,730,-7,398,151,-23,581
49684,763,-55,336,160,-127,595
49685,807,-87,279,193,-200,606
49686,879,-127,204,241,-243,619
49687,955,-178,128,282,-256,627
49688,1039,-218,58,305,-259,625
49689,1112,-273,-23,293,-252,613
49690,1170,-350,-101,270,-228,575
49691,1226,-393,-142,273,-197,516
49692,1254,-442,-162,278,-163,444
49693,1267,-483,-200,259,-129,353
49694,1274,-479,-216,237,-86,243
49695,1270,-447,-220,224,-39,130
49696,1241,-433,-207,220,4,32
49697,1203,-386,-178,200,44,-53
49698,1152,-354,-126,173,77,-128
49699,1090,-322,-61,171,95,-198
49700,1054,-247,14,172,102,-260
49701,1017,-171,43,172,82,-304
49702,962,-94,79,158,59,-326
49703,930,-16,109,124,26,-327
49704,926,29,116,112,-15,-309
49705,915,77,105,73,-53,-275
49706,901,107,102,33,-83,-231
49707,895,105,103,14,-109,-185
49708,916,109,87,0,-138,-145
49709,926,101,64,-14,-163,-108
49710,952,91,36,-29,-177,-77
49711,987,75,-7,-37,-182,-51
49712,1015,61,-41,-40,-175,-22
49713,1030,47,-47,-39,-160,2
49714,1051,24,-64,-30,-145,23
49715,1073,6,-95,-30,-129,40
49716,1086,-17,-118,-40,-98,50
49717,1098,-25,-109,-51,-56,57
49718,1097,-29,-94,-56,-16,63
49719,1089,-29,-100,-59,18,72
49720,1076,-36,-67,-64,49,84
49721,1062,-62,-47,-61,70,92
49722,1045,-74,-30,-55,81,88
49723,1035,-50,-23,-45,86,81
49724,1013,-40,-9,-37,90,74
49725,983,-68,5,-23,93,58
49726,988,-26,46,-3,85,42
49727,977,-5,46,-9,67,51
49728,975,-2,63,-21,46,68
49729,976,-10,55,-23,27,94
49730,988,-15,28,-32,14,121
49731,995,-54,35,-51,7,137
49732,999,-84,40,-62,-4,141
49733,1001,-104,37,-68,-13,137
49734,1014,-117,32,-72,-19,127
49735,1023,-111,11,-79,-25,117
49736,1033,-124,5,-83,-25,114
49737,1036,-143,-3,-87,-24,112
49738,1039,-139,0,-91,-18,107
49739,1034,-123,8,-97,-7,104
49740,1018,-116,23,-118,-7,107
49741,1035,-105,39,-119,-5,94
49742,1021,-69,55,-135,-19,107
49743,1024,-93,23,-157,-41,136
49744,1025,-105,21,-166,-55,154
49745,1022,-127,0,-142,-57,163
49746,1018,-162,10,-131,-54,162
49747,1014,-210,-2,-119,-61,147
49748,1007,-210,-14,-97,-67,107
49749,1005,-158,10,-77,-65,61
49750,1003,-159,16,-48,-74,25
49751,993,-141,22,-30,-88,0
49752,997,-121,10,-21,-104,-14
49753,998,-108,12,-1,-113,-22
49754,1007,-88,-2,17,-115,-21
49755,1014,-75,-15,20,-112,-9
49756,1017,-95,-15,22,-110,2
49757,1019,-106,-22,24,-114,3
49758,1029,-102,-28,21,-110,2
49759,1029,-125,-49,17,-98,-2
49760,1030,-131,-47,7,-84,-16
49761,1043,-120,-43,2,-72,-27
49762,1032,-106,-45,-2,-60,-32
49763,1025,-106,-55,-9,-46,-32
49764,1018,-107,-46,-13,-35,-35
49765,1012,-102,-34,-12,-25,-39
49766,1007,-91,-16,-14,-20,-45
49767,998,-71,0,-6,-23,-44
49768,995,-68,-9,-2,-27,-36
49769,997,-56,-1,5,-28,-23
49770,992,-31,12,32,-36,-8
49771,982,-21,36,69,-53,14
49772,991,-42,37,101,-74,42
49773,976,-36,21,123,-98,60
49774,978,-35,8,137,-112,69
49775,982,-10,-2,145,-116,81
49776,969,-18,4,141,-114,103
49777,941,-40,-2,121,-114,126
49778,918,-48,3,118,-119,140
49779,933,-25,-14,100,-127,147
49780,738,-23,1,81,-151,97
49781,981,18,54,126,-177,88
49782,968,33,-24,81,-193,181
49783,933,-73,15,35,-213,246
49784,785,-156,49,63,-255,235
49785,721,-147,18,105,-300,214
49786,788,-121,-70,76,-328,231
49787,935,-98,-158,13,-303,239
49788,1047,-59,-144,-67,-268,233
49789,1026,-64,-134,-129,-254,226
49790,1050,-108,-69,-114,-226,219
49791,1096,-47,-105,-114,-182,215
49792,1067,-96,-67,-79,-147,210
49793,1072,-83,-42,-41,-129,217
49794,1103,-28,0,-8,-126,225
49795,1105,-72,-39,25,-118,242
49796,1123,-78,-40,39,-103,256
49797,1122,-87,-69,45,-101,268
49798,1086,-128,-53,51,-93,276
49799,1131,-127,-25,56,-82,263
49800,1096,-169,-30,91,-77,239
49801,1095,-156,-5,112,-92,204
49802,1047,-151,-34,130,-114,173
49803,1057,-144,-55,145,-115,166
49804,1066,-147,-55,126,-99,158
49805,1057,-129,-64,121,-89,152
49806,1051,-150,-46,109,-81,157
49807,1044,-156,-49,114,-77,158
49808,1042,-171,-55,132,-71,149
49809,1054,-164,-42,149,-67,136
49810,1024,-143,-52,141,-70,130
49811,1036,-130,-70,138,-70,130
49812,1034,-150,-90,128,-58,137
49813,1048,-153,-88,108,-42,141
49814,1032,-162,-68,73,-26,147
49815,1017,-164,-57,37,-14,147
49816,1015,-177,-42,18,-7,140
49817,1018,-177,-39,12,-11,127
49818,1006,-178,-35,16,-21,112
49819,1014,-180,-41,25,-32,101
49820,1002,-192,-57,27,-38,89
49821,994,-186,-55,23,-38,72
49822,981,-161,-52,16,-37,58
49823,995,-150,-50,9,-39,55
49824,995,-161,-54,4,-38,57
49825,987,-163,-53,3,-36,51
49826,991,-156,-60,0,-35,50
49827,1000,-158,-48,-6,-30,57
49828,991,-159,-43,-11,-24,66
49829,983,-170,-53,-11,-23,72
49830,985,-170,-60,-13,-18,74
49831,998,-151,-63,-25,-9,78
49832,1029,-146,-61,-30,-5,84
49833,1008,-149,-71,-23,-4,81
49834,1014,-168,-73,-14,4,74
49835,1021,-163,-62,-16,13,65
49836,1039,-131,-70,-20,16,60
49837,1035,-122,-69,-15,24,60
49838,1023,-149,-74,-18,38,61
49839,1012,-149,-45,-14,43,57
49840,987,-142,-35,-4,35,53
49841,970,-160,-22,-1,30,61
49842,974,-176,-16,-14,28,68
49843,996,-147,-29,-14,24,68
49844,1003,-152,-11,-8,7,60
49845,1000,-140,-46,4,-7,48
49846,993,-176,-19,0,-7,35
49847,978,-147,-33,-7,-15,25
49848,1000,-159,-20,-14,-23,27
49849,1006,-146,-33,1,-35,30
49850,1015,-151,-52,25,-39,36
49851,1011,-161,-61,35,-30,42
49852,1013,-174,-61,22,-25,44
49853,1013,-171,-66,5,-22,44
49854,1005,-178,-78,7,-10,46
49855,1019,-191,-93,-16,7,49
49856,1024,-182,-85,-42,22,42
49857,1056,-160,-103,-61,37,35
49858,1032,-180,-59,-49,49,30
49859,1012,-202,-51,-25,44,18
49860,1029,-199,-60,-7,42,2
49861,981,-142,-34,11,46,-14
49862,1011,-159,-64,-9,46,-10
49863,989,-152,-29,-32,51,-1
49864,993,-157,-49,-35,47,2
49865,1008,-169,-43,-77,58,13
49866,950,-127,0,-37,51,9
49867,1012,-177,-52,-68,46,23
49868,952,-158,-14,-74,44,23
49869,980,-150,-28,-53,37,12
49870,1005,-162,-43,-81,39,17
49871,997,-158,-17,-93,34,21
49872,1007,-169,-27,-83,28,19
49873,1013,-177,-44,-89,30,18
49874,990,-149,-10,-61,30,8
49875,1016,-159,-41,-56,21,7
49876,1006,-164,-27,-34,14,7
49877,1005,-161,-29,-11,9,4
49878,1004,-163,-40,-27,11,6
49879,994,-143,-62,-18,4,4
49880,1008,-147,-54,-4,4,11
49881,1014,-171,-45,-28,14,20
49882,1005,-168,-32,-34,15,12
49883,1014,-163,-55,-34,11,4
49884,1010,-160,-39,-28,16,2
49885,1015,-181,-54,-31,18,1
49886,1012,-173,-46,-29,21,-8
49887,1009,-155,-39,-27,25,-16
49888,1006,-149,-47,-23,25,-21
49889,1009,-158,-26,-16,23,-20
49890,997,-139,-36,-1,27,-22
49891,993,-138,-41,3,26,-23
49892,1005,-133,-36,4,20,-23
49893,994,-137,-22,16,14,-20
49894,984,-146,-27,30,11,-16
49895,991,-142,-11,44,5,-21
49896,996,-133,-32,53,-2,-21
49897,1003,-151,-27,41,-4,-16
49898,993,-155,-41,7,-3,-14
49899,997,-157,-52,-15,-1,-20
49900,1001,-146,-40,-23,3,-21
49901,1011,-137,-47,-9,4,-23
49902,1015,-156,-81,-44,7,-16
49903,1010,-153,-45,-51,19,-14
49904,1014,-152,-43,-49,28,-11
49905,1019,-156,-41,-49,30,-7
49906,1016,-158,-50,-59,34,-2
49907,1004,-167,-60,-49,41,-4
49908,1014,-187,-26,-28,46,-17
49909,1008,-181,-34,-37,48,-33
49910,1001,-148,-18,-58,47,-34
49911,996,-145,-21,-70,46,-25
49912,1001,-142,-9,-56,46,-23
49913,987,-139,0,-44,42,-22
49914,984,-141,2,-47,33,-16
49915,983,-142,22,-41,18,-11
49916,977,-139,0,-37,7,-9
49917,983,-138,-5,-32,-2,-9
49918,996,-134,-11,-35,-14,-7
49919,994,-126,-12,-39,-18,0
49920,996,-136,-21,-45,-18,9
49921,997,-137,2,-40,-23,12
49922,1012,-122,-30,-28,-32,16
49923,1008,-129,-38,-10,-35,23
49924,1005,-157,-28,7,-35,21
49925,1007,-150,-31,18,-38,11
49926,1014,-140,-46,14,-37,5
49927,1024,-133,-39,14,-32,10
49928,1021,-147,-53,5,-30,17
49929,1018,-146,-31,41,-25,11
49930,1013,-158,-39,68,-19,4
49931,1012,-151,-32,69,-22,3
49932,1002,-142,-32,55,-23,3
49933,996,-137,-38,35,-18,4
49934,997,-134,-35,11,-14,7
49935,1002,-128,-36,-2,-14,15
49936,1002,-135,-32,-13,-10,26
49937,991,-163,-13,-23,-7,34
49938,996,-159,-26,-34,-11,30
49939,1001,-132,-19,-28,-16,28
49940,1008,-145,-9,-23,-21,27
49941,1004,-149,-16,-30,-30,28
49942,998,-142,-32,-26,-36,25
49943,1003,-141,-26,-11,-32,23
49944,1011,-142,-13,7,-33,25
49945,1016,-146,-43,14,-37,28
49946,1003,-161,-42,17,-31,27
49947,1009,-156,-42,22,-29,22
49948,1021,-143,-66,16,-28,19
49949,1030,-145,-61,8,-17,24
49950,1032,-166,-49,-6,-4,30
49951,1025,-175,-57,-14,2,27
49952,1030,-144,-63,-11,11,23
49953,1032,-149,-44,-18,25,28
49954,1025,-162,-55,-36,32,30
49955,1017,-173,-60,-44,39,21
49956,1014,-169,-54,-53,49,7
49957,1010,-148,-33,-56,53,0
49958,1015,-147,-34,-63,56,-3
49959,992,-145,-18,-63,52,-3
49960,986,-147,-4,-54,47,-6
49961,989,-137,4,-37,40,-10
49962,990,-129,0,-29,31,-11
49963,991,-134,19,-19,23,-12
49964,976,-134,23,-5,7,-16
49965,980,-123,23,18,-10,-20
49966,995,-123,3,30,-22,-17
49967,1006,-143,11,39,-32,-12
49968,1016,-153,5,47,-44,-13
49969,1019,-167,-7,55,-46,-16
49970,1031,-177,-6,66,-49,-24
49971,1033,-178,-4,100,-60,-43
49972,1027,-174,-33,135,-68,-62
49973,1036,-172,-38,161,-73,-76
49974,1043,-167,-40,177,-70,-86
49975,1045,-153,-55,194,-61,-91
49976,1036,-142,-69,200,-49,-87
49977,1023,-136,-72,188,-35,-80
49978,1021,-130,-84,156,-15,-72
49979,1014,-134,-80,114,7,-62
49980,1008,-145,-60,77,30,-59
49981,1008,-151,-34,52,43,-62
49982,1000,-147,-18,46,50,-66
49983,989,-146,7,66,48,-74
49984,986,-148,18,84,37,-83
49985,979,-141,27,94,25,-92
49986,966,-110,20,100,12,-97
49987,975,-101,14,98,1,-92
49988,979,-102,24,89,-8,-84
49989,996,-110,17,78,-18,-78
49990,1004,-112,7,87,-28,-77
49991,1022,-98,-16,98,-35,-74
49992,1028,-106,-26,98,-38,-70
49993,1020,-105,-43,78,-39,-65
49994,1031,-93,-68,38,-36,-56
49995,1028,-78,-77,2,-25,-39
49996,1015,-81,-84,-19,-5,-19
49997,1010,-88,-70,-43,18,-11
49998,1011,-89,-72,-49,42,-11
49999,1008,-97,-61,-76,57,-5
50000,1017,-94,-52,-109,67,-7
50001,1025,-91,-37,-124,71,-9
50002,963,-100,-18,-133,77,-4
50003,993,-89,-2,-151,80,-1
50004,975,-78,15,-165,75,7
50005,977,-84,41,-164,62,23
50006,982,-82,34,-170,42,32
50007,996,-82,31,-158,17,41
50008,976,-111,45,-140,-5,52
50009,987,-109,10,-130,-14,57
50010,1010,-98,-15,-129,-16,61
50011,1015,-105,23,-79,-19,65
50012,1019,-94,-9,-14,-26,69
50013,1014,-109,-11,26,-35,70
50014,1017,-110,-66,21,-42,65
50015,1016,-128,-89,-9,-34,62
50016,1036,-140,-89,-23,-17,55
50017,1051,-136,-54,-12,-7,35
50018,1025,-162,-71,6,3,7
50019,1017,-161,-63,26,17,-23
50020,1022,-140,-59,-3,35,-41
50021,1028,-146,-47,9,44,-49
50022,1026,-175,-46,28,55,-67
50023,1025,-196,-81,35,91,-102
50024,1013,-200,-49,43,141,-151
50025,1011,-199,18,51,148,-187
50026,1012,-185,13,21,123,-204
50027,1022,-164,-14,-30,112,-202
50028,1018,-161,-16,-77,125,-181
50029,1018,-175,15,-81,136,-163
50030,1021,-198,17,-60,131,-161
50031,1012,-223,6,-60,129,-172
50032,1012,-228,4,-70,135,-196
50033,1020,-251,23,-91,139,-231
50034,1040,-270,8,-112,138,-277
50035,1041,-306,9,-91,133,-340
50036,1038,-376,0,-25,130,-436
50037,1044,-418,-11,74,131,-570
50038,1059,-425,6,147,141,-722
50039,1053,-409,53,144,142,-875
50040,1047,-314,89,119,118,-1015
50041,1028,-236,82,147,79,-1123
50042,996,-171,70,207,46,-1190
50043,975,-113,101,254,20,-1218
50044,969,-58,125,245,-11,-1203
50045,962,-1,142,190,-47,-1157
50046,962,65,186,73,-86,-1085
50047,951,103,202,-47,-144,-991
50048,942,161,123,-123,-209,-894
50049,944,204,13,-77,-249,-804
50050,974,230,-31,0,-254,-721
50051,1001,264,-66,31,-234,-640
50052,1003,274,-61,65,-214,-559
50053,1008,260,-87,97,-194,-488
50054,1003,224,-104,109,-165,-438
50055,1013,187,-87,102,-138,-415
50056,1031,171,-87,95,-121,-410
50057,1059,143,-63,95,-104,-410
50058,1047,151,-39,23,-93,-401
50059,1044,136,-78,-37,-91,-379
50060,1043,145,-79,-46,-77,-351
50061,1019,142,-66,-43,-51,-317
50062,996,142,-41,-30,-30,-280
50063,973,151,7,-9,-28,-243
50064,950,172,30,-3,-39,-211
50065,931,201,16,3,-56,-185
50066,926,246,10,14,-74,-168
50067,923,276,32,16,-96,-156
50068,912,300,22,42,-119,-153
50069,886,324,34,88,-139,-156
50070,865,365,21,119,-162,-145
50071,866,445,-16,132,-184,-105
50072,882,497,-27,144,-192,-26
50073,896,510,0,132,-192,76
50074,915,545,35,14,-195,217
50075,934,400,-95,7,-214,350
50076,994,286,-149,72,-191,434
50077,1037,208,-161,116,-144,476
50078,1058,131,-178,112,-96,499
50079,1081,87,-190,91,-48,511
50080,1100,56,-173,65,-2,520
50081,1109,-8,-145,73,37,524
50082,1116,-77,-133,65,70,520
50083,1120,-128,-105,63,95,503
50084,1103,-178,-95,61,124,476
50085,1104,-236,-64,43,157,440
50086,1101,-258,-44,24,184,395
50087,1096,-315,0,16,200,344
50088,1083,-329,66,-21,204,276
50089,1075,-348,91,-56,183,206
50090,1082,-366,82,-73,154,143
50091,1078,-408,80,-81,143,77
50092,1073,-438,100,-91,136,0
50093,1084,-441,115,-101,116,-74
50094,1080,-435,129,-119,92,-141
50095,1074,-429,139,-153,66,-209
50096,1073,-420,133,-178,35,-282
50097,1076,-394,138,-177,1,-364
50098,1054,-362,152,-154,-32,-446
50099,1038,-302,122,-99,-77,-534
50100,1039,-218,91,-43,-113,-611
50101,1012,-165,95,-6,-135,-669
50102,977,-101,104,16,-161,-710
50103,945,-37,85,16,-191,-732
50104,920,47,74,36,-212,-737
50105,897,117,52,86,-231,-728
50106,884,213,20,134,-247,-702
50107,872,321,-29,167,-256,-660
50108,873,417,-94,164,-249,-593
50109,894,489,-149,117,-226,-506
50110,904,520,-157,51,-191,-413
50111,910,521,-134,-11,-161,-324
50112,911,538,-136,-53,-142,-244
50113,911,567,-177,-70,-131,-162
50114,929,576,-188,-76,-102,-78
50115,940,555,-176,-96,-69,11
50116,952,517,-166,-114,-43,100
50117,959,464,-149,-131,-14,185
50118,966,402,-113,-116,11,254
50119,979,352,-75,-109,28,305
50120,982,295,-59,-84,37,345
50121,977,243,-46,-82,39,373
50122,981,212,-51,-77,35,385
50123,996,184,-50,-81,36,388
50124,1003,160,-27,-91,39,393
50125,1013,127,20,-106,35,400
50126,1018,80,0,-105,28,407
50127,1041,45,1,-106,24,415
50128,1052,-11,6,-86,26,413
50129,1065,-58,14,-56,23,392
50130,1067,-85,-2,-53,21,359
50131,1080,-108,22,-73,16,321
50132,1089,-135,4,-86,11,284
50133,1083,-163,4,-59,9,242
50134,1084,-188,45,-51,10,196
50135,1083,-215,26,-37,2,142
50136,1082,-225,33,-34,-5,81
50137,1089,-228,35,-49,-16,16
50138,1073,-237,17,-57,-32,-51
50139,1073,-215,13,-53,-40,-122
50140,1070,-174,13,-53,-44,-183
50141,1066,-134,2,-58,-48,-233
50142,1049,-76,0,-54,-49,-270
50143,1037,-50,-9,-44,-49,-292
50144,1029,-30,-19,-48,-48,-308
50145,1019,9,-12,-30,-51,-322
50146,1003,43,-17,-8,-51,-324
50147,980,64,-15,6,-50,-321
50148,977,103,-22,0,-53,-319
50149,974,154,-37,-18,-63,-311
50150,965,187,-56,-51,-61,-289
50151,960,199,-61,-81,-51,-260
50152,963,223,-60,-95,-43,-226
50153,967,231,-61,-108,-32,-185
50154,975,228,-45,-119,-21,-142
50155,978,220,-38,-130,-21,-103
50156,983,204,-47,-135,-18,-66
50157,989,186,-57,-131,-11,-37
50158,993,159,-58,-126,-3,-21
50159,1006,145,-51,-126,2,-13
50160,1010,135,-42,-150,11,-4
50161,1008,123,-33,-173,17,1
50162,1015,111,-21,-167,18,4
50163,1012,93,-19,-158,20,4
50164,1002,81,3,-157,17,0
50165,1007,84,12,-162,7,-6
50166,1008,95,-5,-164,-3,-7
50167,1006,101,4,-165,-7,-6
50168,1003,88,18,-164,-11,-4
50169,1003,82,14,-156,-21,-4
50170,1001,82,23,-150,-28,-3
50171,1002,80,23,-132,-39,-9
50172,1008,91,9,-111,-54,-18
50173,1006,118,-6,-99,-60,-23
50174,1000,139,-2,-88,-62,-23
50175,999,177,-19,-79,-66,-16
50176,1003,198,-49,-70,-67,0
50177,1001,199,-62,-73,-60,16
50178,996,213,-61,-74,-52,28
50179,990,237,-59,-79,-48,41
50180,976,248,-59,-68,-42,49
50181,976,257,-49,-42,-42,47
50182,960,305,-58,-30,-48,42
50183,958,358,-65,-31,-50,56
50184,952,396,-69,-37,-45,91
50185,952,421,-64,-25,-38,148
50186,942,413,-60,-16,-26,220
50187,935,384,-38,-7,-16,296
50188,953,331,-14,4,-18,359
50189,963,272,-23,13,-23,404
50190,978,210,-34,25,-25,434
50191,986,147,-21,48,-21,446
50192,996,123,-32,65,-19,452
50193,1018,95,-48,73,-12,462
50194,1049,54,-34,77,0,469
50195,1063,-12,-46,71,10,466
50196,1074,-75,-43,55,21,447
50197,1075,-132,-17,46,30,413
50198,1077,-175,-14,52,29,365
50199,1080,-217,-23,57,31,312
50200,1085,-240,-5,55,35,256
50201,1090,-242,12,54,32,198
50202,1087,-244,18,49,30,148
50203,1079,-260,37,37,29,104
50204,1080,-272,51,23,22,53
50205,1072,-262,45,11,11,0
50206,1070,-248,37,-2,0,-57
50207,1063,-239,49,-19,-13,-114
50208,1046,-207,43,-33,-28,-171
50209,1038,-166,35,-45,-41,-219
50210,1014,-116,37,-46,-51,-257
50211,1016,-45,15,-43,-67,-282
50212,1011,13,-23,-42,-74,-294
50213,999,50,-20,-48,-75,-296
50214,983,91,-20,-54,-77,-301
50215,962,168,-39,-56,-81,-301
50216,946,251,-45,-50,-79,-288
50217,937,313,-49,-50,-79,-262
50218,933,370,-76,-40,-79,-226
50219,938,413,-77,-23,-72,-177
50220,936,452,-88,-26,-63,-116
50221,934,474,-93,-41,-53,-40
50222,941,478,-109,-46,-35,50
50223,953,451,-93,-45,-13,144
50224,968,379,-74,-41,4,228
50225,979,301,-65,-43,16,293
50226,991,223,-58,-51,27,336
50227,1012,156,-44,-56,33,356
50228,1029,101,-35,-59,38,366
50229,1036,43,-27,-64,46,367
50230,1051,-7,-23,-65,53,359
50231,1061,-42,-15,-51,57,339
50232,1066,-76,0,-32,60,318
50233,1064,-134,17,-21,61,292
50234,1072,-174,30,-18,58,252
50235,1074,-182,29,-14,49,205
50236,1071,-201,37,-13,42,159
50237,1064,-217,60,-11,32,108
50238,1057,-217,72,-5,13,50
50239,1031,-191,68,-2,-9,-11
50240,1025,-123,68,5,-32,-74
50241,1011,-31,53,14,-58,-124
50242,996,54,28,16,-79,-149
50243,974,116,24,21,-94,-157
50244,967,181,0,37,-106,-149
50245,967,248,-25,58,-113,-124
50246,946,295,-26,64,-112,-86
50247,939,335,-59,63,-114,-44
50248,956,378,-101,66,-109,7
50249,968,384,-130,62,-92,74
50250,985,367,-140,51,-62,143
50251,1001,324,-143,40,-28,210
50252,1011,254,-128,27,4,276
50253,1033,150,-121,11,35,328
50254,1047,63,-105,-2,64,357
50255,1063,-8,-90,-30,91,370
50256,1073,-64,-64,-47,116,365
50257,1089,-126,-63,-58,136,347
50258,1105,-183,-33,-74,156,323
50259,1114,-258,-17,-102,168,295
50260,1113,-337,0,-129,179,254
50261,1115,-411,27,-142,184,198
50262,1117,-476,58,-144,182,123
50263,1114,-507,108,-138,165,22
50264,1096,-481,168,-160,126,-100
50265,1056,-395,178,-198,65,-219
50266,1018,-330,118,-182,4,-328
50267,969,-258,75,-98,-28,-442
50268,965,-101,90,-23,-39,-558
50269,931,50,130,2,-65,-625
50270,910,171,123,0,-112,-630
50271,876,295,84,10,-155,-593
50272,868,412,39,35,-175,-520
50273,877,511,1,64,-182,-420
50274,884,583,-48,89,-185,-300
50275,914,592,-112,91,-174,-171
50276,952,578,-158,62,-140,-46
50277,988,528,-186,11,-102,72
50278,1022,443,-223,-30,-58,177
50279,1071,313,-251,-37,0,266
50280,1113,147,-248,-46,72,330
50281,1149,12,-253,-66,143,364
50282,1182,-100,-278,-79,220,365
50283,1215,-190,-243,-74,310,345
50284,1216,-303,-167,-74,383,305
50285,1199,-435,-85,-97,428,238
50286,1170,-523,-13,-141,445,132
50287,1116,-528,62,-189,435,2
50288,1056,-495,123,-217,408,-137
50289,985,-410,177,-206,367,-281
50290,936,-267,193,-140,324,-410
50291,900,-147,243,-92,281,-499
50292,857,-38,290,-80,226,-554
50293,839,30,285,-68,156,-578
50294,827,134,275,-49,86,-591
50295,817,234,276,-7,20,-588
50296,816,368,267,37,-51,-565
50297,824,488,212,68,-124,-517
50298,827,569,164,59,-175,-443
50299,859,623,129,35,-219,-352
50300,884,655,43,18,-261,-254
50301,936,655,-68,6,-275,-144
50302,970,604,-106,-8,-252,-31
50303,1019,507,-129,-16,-220,66
50304,1062,404,-152,-27,-189,139
50305,1097,282,-163,-49,-149,189
50306,1108,154,-142,-80,-105,210
50307,1109,54,-113,-105,-69,198
50308,1094,-36,-80,-123,-38,164
50309,1091,-85,-45,-135,-14,118
50310,1090,-124,-35,-137,7,74
50311,1084,-162,-23,-123,28,39
50312,1069,-217,21,-106,45,2
50313,1063,-248,63,-98,47,-45
50314,1054,-258,73,-99,39,-100
50315,1055,-254,92,-112,28,-165
50316,1044,-225,101,-119,8,-235
50317,1040,-182,89,-116,-16,-302
50318,1025,-176,85,-118,-33,-363
50319,1012,-142,83,-130,-49,-427
50320,998,-81,89,-140,-65,-495
50321,987,-6,84,-128,-84,-547
50322,971,61,80,-110,-103,-575
50323,963,138,73,-86,-123,-579
50324,959,217,45,-54,-136,-561
50325,958,260,35,-22,-137,-518
50326,962,264,31,-1,-137,-467
50327,965,256,12,9,-144,-424
50328,975,245,-12,3,-146,-393
50329,988,251,-24,-14,-144,-373
50330,998,239,-38,-30,-140,-357
50331,1000,236,-54,-46,-133,-347
50332,1010,214,-47,-58,-122,-339
50333,1009,202,-40,-68,-114,-336
50334,1001,213,-30,-87,-105,-336
50335,992,232,-25,-97,-98,-333
50336,983,270,-16,-98,-93,-326
50337,966,290,-3,-93,-92,-314
50338,961,309,3,-92,-90,-296
50339,956,319,22,-98,-91,-273
50340,945,327,21,-100,-102,-248
50341,952,327,22,-98,-109,-217
50342,962,307,31,-100,-113,-182
50343,963,278,26,-96,-121,-150
50344,975,235,13,-93,-128,-126
50345,989,215,-4,-90,-127,-109
50346,1020,191,-20,-91,-124,-99
50347,1030,174,-34,-92,-120,-88
50348,1130,331,68,-101,-152,-4
50349,1004,113,-114,-245,-195,211
50350,1020,-18,-177,-268,-82,186
50351,1071,68,-11,-150,5,20
50352,1055,69,-19,-86,-25,-61
50353,1038,-10,-71,-103,-40,-136
50354,1065,33,-43,-99,-29,-240
50355,1066,97,-48,-84,-22,-296
50356,1024,116,-45,-75,0,-307
50357,988,122,-9,-72,19,-305
50358,975,160,18,-69,20,-310
50359,968,192,20,-72,7,-315
50360,953,226,22,-72,-4,-319
50361,946,271,26,-66,-11,-314
50362,950,281,32,-57,-19,-301
50363,943,301,9,-48,-30,-282
50364,942,319,4,-44,-37,-262
50365,937,348,-4,-37,-41,-247
50366,945,393,-9,-28,-46,-233
50367,939,441,-15,-25,-49,-210
50368,941,484,-31,-24,-51,-177
50369,953,517,-32,-28,-53,-137
50370,951,528,-40,-35,-50,-91
50371,937,533,-36,-42,-44,-38
50372,948,548,-45,-39,-43,14
50373,952,558,-62,-32,-38,73
50374,950,548,-64,-25,-28,130
50375,951,541,-54,-17,-18,185
50376,936,551,-55,-9,-11,236
50377,935,580,-59,-7,-4,292
50378,932,586,-45,-6,1,354
50379,942,581,-57,-23,7,420
50380,951,564,-53,-58,16,483
50381,941,529,-27,-103,25,541
50382,941,504,8,-134,22,586
50383,920,508,12,-130,10,631
50384,914,490,28,-96,-1,685
50385,914,463,36,-55,-16,745
50386,918,467,22,-11,-31,801
50387,973,447,36,30,-35,844
50388,903,432,12,40,-90,905
50389,911,409,-46,88,-88,940
50390,910,374,20,128,-36,968
50391,928,325,64,160,-46,988
50392,935,356,19,174,-81,990
50393,922,386,-12,180,-93,998
50394,913,395,14,184,-95,1022
50395,912,394,13,197,-104,1054
50396,910,388,-9,198,-109,1095
50397,900,388,-14,203,-108,1144
50398,901,387,-21,234,-104,1197
50399,897,367,-18,285,-105,1250
50400,889,340,-40,330,-102,1307
50401,897,317,-94,360,-88,1359
50402,948,304,-109,397,-66,1409
50403,1030,295,-98,435,-41,1477
50404,965,257,-129,437,-8,1557
50405,949,147,-153,431,35,1617
50406,967,113,-153,420,93,1642
50407,950,60,-128,423,147,1659
50408,949,-41,-72,442,182,1665
50409,931,-78,-32,443,205,1660
50410,907,-105,7,432,219,1661
50411,894,-138,34,418,229,1664
50412,891,-140,75,404,229,1661
50413,894,-118,39,419,217,1666
50414,901,-136,13,425,219,1689
50415,903,-198,43,399,230,1713
50416,897,-266,98,339,234,1724
50417,874,-305,156,258,218,1724
50418,871,-307,159,200,188,1725
50419,890,-332,163,158,158,1736
50420,875,-369,228,112,126,1748
50421,855,-370,264,71,76,1759
50422,842,-356,224,49,15,1782
50423,855,-417,204,41,-28,1824
50424,837,-523,195,-13,-56,1846
50425,820,-614,217,-56,-86,1823
50426,825,-691,219,-53,-132,1755
50427,833,-752,168,5,-184,1654
50428,860,-774,144,58,-225,1528
50429,877,-764,143,77,-267,1400
50430,914,-753,81,115,-311,1277
50431,966,-766,26,103,-340,1162
50432,975,-810,-84,81,-363,1047
50433,1010,-748,-95,51,-370,933
50434,1059,-635,-187,54,-352,857
50435,1098,-669,-213,48,-295,839
50436,1061,-759,-182,17,-228,828
50437,1018,-805,-143,-20,-177,794
50438,986,-782,-117,-58,-142,749
50439,975,-763,-119,-58,-108,708
50440,967,-752,-144,-84,-69,666
50441,886,-813,-92,-116,-40,604
50442,955,-753,-24,-76,-53,472
50443,887,-705,-37,-107,-40,396
50444,867,-703,9,-111,-34,325
50445,863,-621,18,-84,-44,251
50446,855,-589,53,-65,-59,195
50447,852,-517,52,-58,-79,164
50448,855,-473,77,-74,-98,161
50449,848,-429,96,-108,-120,177
50450,852,-381,80,-116,-147,210
50451,852,-379,71,-114,-170,255
50452,861,-405,63,-94,-191,290
50453,870,-435,29,-84,-201,310
50454,892,-467,-8,-89,-205,310
50455,935,-467,-30,-102,-205,297
50456,947,-484,-72,-143,-193,270
50457,906,-467,-64,-172,-158,221
50458,919,-447,-30,-163,-159,196
50459,914,-453,-63,-163,-179,188
50460,932,-448,-82,-140,-182,175
50461,955,-476,-105,-103,-166,160
50462,948,-492,-120,-79,-144,137
50463,933,-510,-123,-67,-121,107
50464,937,-485,-109,-48,-99,79
50465,943,-489,-125,-27,-79,58
50466,952,-523,-153,-11,-47,28
50467,972,-543,-190,50,-9,-22
50468,1061,-546,-298,121,30,-81
50469,914,-428,-28,182,88,-142
50470,910,-361,-19,134,92,-150
50471,968,-395,-94,173,73,-116
50472,884,-329,118,120,77,-76
50473,853,-362,62,34,35,-25
50474,861,-407,67,14,-13,11
50475,911,-452,-21,20,-26,25
50476,913,-436,24,7,-19,18
50477,893,-435,47,-4,-32,12
50478,888,-433,16,-33,-60,16
50479,905,-468,-20,-18,-71,14
50480,892,-462,-9,0,-72,-6
50481,929,-500,-28,66,-74,-37
50482,926,-452,-20,55,-79,-63
50483,931,-473,-37,52,-90,-72
50484,952,-508,-67,49,-90,-85
50485,945,-503,-58,39,-84,-104
50486,934,-495,-72,30,-78,-116
50487,939,-523,-70,31,-72,-116
50488,934,-515,-59,30,-65,-124
50489,941,-492,-75,21,-57,-136
50490,940,-476,-76,4,-44,-139
50491,938,-466,-64,-28,-35,-137
50492,929,-451,-88,-49,-29,-140
50493,924,-438,-77,-38,-18,-144
50494,920,-417,-64,-28,-8,-147
50495,906,-389,-53,-14,-4,-150
50496,896,-366,-52,-35,0,-146
50497,901,-361,-45,-53,0,-136
50498,894,-343,-50,-39,-2,-125
50499,893,-330,-35,-17,-2,-111
50500,897,-341,-29,-18,-1,-93
50501,889,-342,-21,-17,-7,-82
50502,879,-321,-22,7,-11,-75
50503,880,-314,-7,24,-18,-60
50504,899,-334,-19,37,-30,-44
50505,908,-336,-43,20,-38,-32
50506,924,-343,-66,5,-40,-23
50507,935,-355,-70,5,-35,-9
50508,939,-362,-80,2,-25,6
50509,943,-376,-97,-2,-7,24
50510,942,-394,-70,10,8,37
50511,937,-397,-54,15,14,48
50512,938,-419,-50,-7,17,62
50513,928,-445,-43,-49,21,72
50514,931,-473,-63,-65,23,65
50515,935,-469,-68,-39,28,44
50516,926,-464,-53,-21,37,26
50517,924,-437,-52,-21,42,17
50518,913,-422,-43,-14,44,3
50519,917,-411,-28,3,44,-7
50520,914,-404,-14,14,39,-9
50521,913,-403,11,18,28,-7
50522,907,-409,0,21,15,-11
50523,899,-406,-5,31,4,-21
50524,923,-404,-9,50,-7,-30
50525,935,-397,-9,42,-18,-28
50526,935,-404,-25,9,-26,-21
50527,938,-387,-63,11,-28,-20
50528,936,-379,-48,51,-21,-18
50529,932,-357,-2,65,-12,-7
50530,935,-369,8,24,-18,18
50531,924,-385,-12,-25,-36,47
50532,921,-400,-56,-46,-42,65
50533,922,-412,-67,-36,-35,72
50534,927,-415,-66,-23,-26,70
50535,936,-427,-72,-26,-17,66
50536,936,-434,-80,-28,-5,56
50537,941,-432,-89,-9,3,37
50538,937,-430,-90,9,16,21
50539,935,-408,-93,24,34,5
50540,935,-407,-67,44,53,-8
50541,932,-389,-47,63,61,-18
50542,934,-377,-25,61,61,-10
50543,925,-386,-18,30,58,8
50544,912,-408,-20,6,56,24
50545,903,-401,-20,7,53,38
50546,917,-391,-19,12,52,53
50547,917,-386,-10,7,48,67
50548,912,-386,-14,1,45,75
50549,912,-384,-8,7,43,79
50550,916,-396,10,18,35,78
50551,903,-405,24,14,17,81
50552,900,-416,15,-3,2,86
50553,896,-428,0,-7,-11,84
50554,905,-425,-5,12,-25,77
50555,909,-410,-9,26,-33,75
50556,926,-406,-7,10,-36,77
50557,935,-417,-39,0,-42,75
50558,935,-424,-54,10,-41,72
50559,939,-429,-45,14,-32,72
50560,936,-447,-35,11,-27,72
50561,939,-464,-41,4,-24,70
50562,930,-477,-49,-8,-17,68
50563,937,-485,-50,-11,-12,64
50564,930,-495,-52,-15,-7,58
50565,921,-508,-47,-24,0,46
50566,914,-515,-50,-23,11,28
50567,908,-507,-44,-4,16,5
50568,914,-483,-35,11,19,-14
50569,915,-469,-29,9,22,-32
50570,916,-465,-26,6,24,-53
50571,918,-465,-17,21,22,-71
50572,921,-459,-7,21,18,-78
50573,918,-461,-3,2,11,-79
50574,918,-460,-12,-10,4,-83
50575,917,-450,-13,-4,2,-86
50576,923,-445,-7,1,0,-84
50577,925,-445,3,-9,-7,-80
50578,926,-452,-3,-37,-14,-77
50579,919,-455,-17,-44,-18,-81
50580,911,-442,-20,-20,-26,-97
50581,919,-410,-23,-2,-28,-109
50582,924,-387,-31,-8,-27,-113
50583,932,-386,-42,-15,-28,-116
50584,934,-382,-57,1,-27,-124
50585,939,-365,-43,14,-21,-121
50586,931,-360,-31,8,-14,-110
50587,930,-369,-21,-1,-14,-97
50588,929,-375,-27,-11,-13,-79
50589,933,-370,-23,-28,-13,-57
50590,934,-389,-29,-49,-14,-38
50591,935,-403,-51,-68,-13,-23
50592,931,-414,-52,-72,-6,-19
50593,921,-416,-55,-54,0,-24
50594,922,-415,-43,-39,5,-29
50595,921,-424,-28,-47,12,-32
50596,917,-431,-29,-52,13,-43
50597,920,-439,-22,-29,10,-60
50598,924,-434,-7,-11,8,-75
50599,936,-437,-4,-18,5,-84
50600,936,-447,-7,-29,-2,-93
50601,945,-445,-24,-31,-8,-103
50602,951,-439,-28,-32,-9,-109
50603,955,-430,-35,-34,-8,-113
50604,946,-419,-37,-32,-2,-118
50605,933,-415,-32,-27,4,-124
50606,919,-392,-19,-9,9,-131
50607,927,-375,0,-4,4,-133
50608,938,-376,0,-25,-2,-126
50609,934,-378,-11,-42,-8,-123
50610,924,-381,-15,-32,-16,-123
50611,920,-378,-6,-18,-22,-119
50612,928,-381,7,-35,-25,-107
50613,932,-396,4,-54,-36,-96
50614,939,-409,-17,-66,-46,-89
50615,948,-409,-22,-78,-51,-81
50616,951,-428,-16,-90,-53,-77
50617,947,-454,-26,-98,-53,-79
50618,940,-469,-28,-101,-50,-90
50619,944,-465,-30,-95,-49,-104
50620,954,-477,-30,-98,-51,-121
50621,951,-478,-39,-119,-49,-135
50622,950,-497,-57,-134,-45,-156
50623,959,-508,-70,-133,-42,-184
50624,942,-503,-82,-129,-30,-211
50625,916,-512,-75,-135,-15,-235
50626,917,-514,-67,-126,-2,-264
50627,929,-513,-63,-105,11,-300
50628,931,-507,-28,-94,23,-333
50629,925,-518,3,-112,21,-359
50630,924,-524,-1,-149,5,-382
50631,928,-515,-24,-163,-7,-406
50632,932,-500,-45,-174,-11,-431
50633,934,-477,-66,-177,-8,-457
50634,935,-443,-76,-169,3,-477
50635,927,-385,-70,-136,19,-503
50636,920,-326,-28,-74,32,-534
50637,713,-322,18,249,24,-644
50638,762,-424,-142,438,52,-831
50639,894,-542,33,748,71,-1005
50640,1065,-449,91,753,25,-1113
50641,848,-383,252,217,-47,-1159
50642,760,-362,64,17,-130,-1272
50643,922,-315,-8,156,-167,-1360
50644,1058,-232,-34,414,-181,-1281
50645,1107,-165,-75,552,-175,-1092
50646,995,-116,-61,364,-149,-921
50647,845,-133,100,217,-110,-788
50648,769,-63,84,105,-86,-755
50649,938,0,101,123,-110,-749
50650,1011,26,79,96,-174,-664
50651,990,-1,0,-9,-233,-565
50652,964,-61,-84,-62,-257,-527
50653,962,-73,-139,-50,-238,-527
50654,971,-17,-110,-32,-194,-516
50655,970,18,-56,-44,-156,-469
50656,984,43,-7,-83,-147,-393
50657,994,53,-9,-121,-161,-306
50658,1008,59,-25,-158,-178,-210
50659,1008,52,-51,-198,-184,-117
50660,994,32,-51,-208,-177,-20
50661,1001,29,-59,-221,-163,67
50662,988,13,-62,-224,-152,142
50663,981,-32,-73,-200,-148,205
50664,989,-66,-86,-161,-140,241
50665,1005,-102,-96,-112,-132,249
50666,1016,-132,-110,-73,-125,247
50667,1026,-139,-141,-50,-111,238
50668,1042,-108,-162,-34,-89,228
50669,1055,-96,-168,-39,-63,230
50670,1050,-103,-156,-46,-31,236
50671,1037,-117,-146,-54,0,245
50672,1023,-143,-130,-55,26,248
50673,1020,-156,-101,-52,49,247
50674,1008,-171,-68,-61,64,252
50675,1005,-171,-43,-81,57,265
50676,992,-177,-43,-96,46,273
50677,975,-200,-36,-95,45,278
50678,975,-210,-22,-81,43,278
50679,980,-216,-20,-71,30,280
50680,981,-221,-40,-70,24,288
50681,984,-236,-43,-74,22,301
50682,987,-263,-36,-74,20,305
50683,1002,-292,-45,-84,16,303
50684,1026,-271,-5,-149,16,300
50685,1010,-303,-50,-195,5,308
50686,990,-339,-61,-201,-8,309
50687,989,-349,-65,-215,-7,293
50688,982,-351,-89,-212,8,266
50689,981,-341,-71,-203,21,243
50690,971,-325,-56,-189,23,221
50691,977,-313,-57,-196,23,203
50692,968,-313,-74,-194,30,182
50693,964,-308,-65,-197,34,169
50694,963,-317,-68,-199,37,151
50695,969,-319,-52,-183,32,132
50696,974,-320,-83,-164,28,109
50697,975,-317,-104,-146,36,81
50698,978,-308,-105,-123,54,49
50699,992,-249,-46,-83,74,11
50700,998,-235,-43,-119,57,4
50701,994,-219,-64,-155,32,7
50702,995,-211,-92,-161,25,1
50703,1000,-212,-105,-151,35,-8
50704,991,-206,-93,-135,55,-11
50705,989,-222,-78,-98,65,-8
50706,982,-218,-64,-91,72,0
50707,985,-211,-45,-102,78,8
50708,973,-204,-27,-117,80,17
50709,972,-183,-20,-115,72,25
50710,978,-183,-26,-111,60,40
50711,982,-192,-40,-112,47,56
50712,976,-204,-34,-85,36,67
50713,971,-221,-40,-54,30,75
50714,978,-222,-25,-25,28,78
50715,971,-235,-5,-17,23,79
50716,972,-240,3,8,9,79
50717,967,-242,7,-7,-4,80
50718,962,-251,5,-12,-19,77
50719,966,-255,-15,-13,-35,73
50720,975,-260,-33,-18,-41,74
50721,981,-274,-36,-21,-47,74
50722,990,-279,-51,-19,-53,72
50723,990,-274,-60,-22,-48,74
50724,988,-281,-66,-24,-42,72
50725,993,-286,-72,-16,-42,65
50726,993,-277,-71,-10,-35,60
50727,995,-278,-64,-19,-25,56
50728,988,-279,-72,-28,-21,47
50729,987,-280,-77,-17,-15,37
50730,985,-274,-57,-16,-4,32
50731,980,-277,-49,-20,-5,28
50732,974,-276,-56,-21,-7,21
50733,968,-274,-56,-21,-3,16
50734,964,-276,-38,-23,-4,11
50735,961,-261,-38,-18,-11,5
50736,963,-250,-40,-19,-12,5
50737,963,-252,-30,-25,-17,8
50738,970,-251,-44,-23,-23,9
50739,972,-238,-43,-21,-23,13
50740,984,-227,-54,-27,-21,23
50741,980,-236,-52,-32,-21,30
50742,992,-237,-37,-34,-23,38
50743,978,-248,-35,-47,-26,53
50744,975,-270,-40,-60,-34,61
50745,976,-278,-63,-61,-39,62
50746,974,-278,-73,-49,-31,56
50747,979,-287,-65,-37,-23,46
50748,989,-283,-65,-33,-21,35
50749,991,-276,-73,-31,-17,26
50750,981,-282,-63,-30,-11,16
50751,982,-271,-61,-16,-10,1
50752,994,-261,-51,-14,-7,-6
50753,970,-262,-44,-25,-7,0
50754,975,-268,-45,-39,-14,3
50755,985,-256,-52,-43,-18,4
50756,975,-264,-56,-53,-13,9
50757,975,-262,-37,-59,-14,10
50758,970,-257,-50,-60,-18,8
50759,969,-254,-56,-60,-19,8
50760,965,-253,-48,-63,-17,9
50761,971,-263,-42,-67,-22,10
50762,975,-270,-52,-77,-27,11
50763,974,-265,-53,-75,-27,8
50764,969,-274,-57,-56,-29,2
50765,968,-269,-66,-9,-32,-10
50766,991,-267,-58,-19,-30,-17
50767,992,-264,-55,-25,-27,-19
50768,990,-270,-61,-30,-30,-21
50769,983,-258,-64,-36,-28,-21
50770,984,-254,-57,-33,-22,-21
50771,975,-253,-59,-36,-19,-18
50772,981,-247,-53,-30,-19,-18
50773,982,-236,-56,-23,-21,-14
50774,987,-234,-63,-31,-18,-12
50775,991,-220,-65,-43,-17,-11
50776,980,-226,-61,-45,-14,-13
50777,979,-234,-46,-45,-15,-12
50778,969,-236,-40,-43,-18,-13
50779,965,-229,-30,-40,-25,-12
50780,965,-233,-32,-38,-32,-9
50781,970,-237,-18,-34,-39,-9
50782,972,-235,-16,-34,-51,-2
50783,967,-246,-32,-39,-60,7
50784,976,-256,-39,-32,-68,9
50785,984,-269,-49,-23,-72,8
50786,984,-277,-54,-18,-72,7
50787,984,-282,-60,-11,-71,2
50788,981,-296,-65,-5,-73,-7
50789,978,-285,-61,2,-74,-14
50790,984,-284,-68,9,-71,-23
50791,980,-282,-76,16,-71,-34
50792,987,-276,-87,23,-67,-46
50793,988,-277,-87,32,-60,-60
50794,984,-270,-83,36,-54,-75
50795,989,-252,-79,35,-49,-87
50796,979,-255,-84,33,-42,-98
50797,984,-262,-85,37,-35,-111
50798,994,-258,-88,45,-29,-128
50799,994,-251,-78,46,-22,-140
50800,986,-253,-70,42,-18,-151
50801,985,-259,-64,40,-16,-166
50802,980,-255,-67,38,-13,-183
50803,983,-259,-59,35,-13,-199
50804,982,-267,-63,28,-16,-217
50805,989,-267,-65,18,-18,-236
50806,982,-268,-71,10,-17,-256
50807,982,-251,-66,3,-18,-279
50808,983,-238,-60,1,-21,-300
50809,975,-222,-65,7,-23,-318
50810,981,-205,-66,17,-25,-338
50811,987,-195,-68,28,-25,-353
50812,988,-173,-60,28,-27,-357
50813,980,-164,-61,28,-30,-347
50814,989,-155,-59,32,-31,-334
50815,995,-148,-60,36,-30,-320
50816,988,-143,-57,37,-28,-303
50817,985,-142,-44,35,-30,-284
50818,986,-140,-55,30,-35,-265
50819,988,-140,-54,32,-37,-248
50820,990,-145,-50,42,-39,-233
50821,996,-138,-48,49,-46,-219
50822,997,-133,-52,53,-50,-203
50823,997,-140,-55,61,-53,-186
50824,1010,-141,-56,70,-57,-168
50825,1010,-142,-61,74,-60,-145
50826,1013,-153,-65,75,-58,-122
50827,1015,-169,-70,79,-55,-107
50828,1013,-171,-80,87,-50,-97
50829,1010,-180,-76,84,-43,-86
50830,1012,-178,-80,72,-39,-74
50831,1012,-185,-90,56,-33,-63
50832,1016,-187,-84,49,-21,-54
50833,1005,-194,-66,44,-11,-49
50834,1004,-194,-60,35,-7,-41
50835,996,-189,-63,25,-7,-28
50836,985,-200,-61,21,-7,-21
50837,987,-194,-51,23,-10,-18
50838,996,-179,-48,21,-13,-12
50839,1007,-192,-51,11,-18,-4
50840,997,-200,-59,4,-21,-3
50841,999,-191,-65,7,-20,-8
50842,992,-185,-48,4,-18,-7
50843,995,-182,-50,-7,-24,-3
50844,996,-185,-73,-15,-28,-3
50845,1004,-185,-75,-12,-23,-7
50846,1002,-175,-61,-11,-18,-9
50847,993,-175,-55,-13,-23,-9
50848,997,-182,-69,-14,-26,-11
50849,992,-186,-68,-7,-24,-15
50850,997,-185,-66,4,-23,-23
50851,991,-171,-62,7,-26,-25
50852,993,-180,-62,2,-27,-23
50853,994,-171,-73,10,-28,-28
50854,1001,-151,-71,21,-24,-36
50855,1000,-149,-59,18,-21,-32
50856,996,-162,-58,9,-25,-27
50857,996,-178,-64,7,-28,-32
50858,996,-180,-55,11,-26,-42
50859,989,-180,-35,11,-28,-46
50860,987,-189,-38,6,-40,-49
50861,982,-189,-45,5,-49,-50
50862,986,-188,-44,13,-54,-54
50863,993,-189,-39,25,-61,-58
50864,997,-177,-45,26,-71,-56
50865,999,-181,-53,20,-78,-51
50866,1000,-184,-59,19,-81,-51
50867,1003,-172,-59,22,-81,-53
50868,1001,-175,-55,17,-85,-51
50869,996,-183,-60,5,-90,-47
50870,993,-182,-67,2,-92,-48
50871,998,-175,-72,3,-91,-52
50872,1001,-155,-76,2,-89,-50
50873,1004,-153,-77,-1,-89,-42
50874,996,-151,-92,-5,-87,-35
50875,999,-150,-101,0,-78,-35
50876,1001,-149,-85,6,-67,-42
50877,1006,-132,-84,6,-62,-45
50878,1000,-128,-89,2,-59,-44
50879,1006,-131,-93,4,-56,-46
50880,1005,-128,-86,13,-50,-50
50881,1015,-114,-84,16,-44,-49
50882,1008,-105,-94,9,-39,-38
50883,1012,-100,-99,3,-35,-28
50884,1011,-89,-93,0,-25,-14
50885,1010,-82,-84,-7,-15,6
50886,1001,-89,-73,-20,-12,27
50887,998,-96,-84,-28,-11,43
50888,994,-104,-75,-25,-6,52
50889,996,-110,-63,-17,-7,52
50890,993,-107,-64,-12,-11,55
50891,988,-114,-69,-11,-15,60
50892,995,-125,-72,-6,-18,60
50893,1006,-120,-67,3,-21,60
50894,1000,-124,-66,4,-22,71
50895,1003,-142,-66,-2,-23,86
50896,1003,-167,-86,0,-26,88
50897,1002,-174,-86,7,-22,81
50898,999,-178,-63,9,-16,72
50899,1004,-185,-55,4,-23,65
50900,997,-198,-86,3,-32,55
50901,999,-201,-84,14,-25,43
50902,998,-185,-77,26,-19,31
50903,1014,-173,-78,23,-21,28
50904,1009,-188,-89,13,-19,30
50905,1002,-192,-83,10,-14,21
50906,1004,-178,-74,16,-10,8
50907,1005,-153,-65,14,-9,7
50908,992,-156,-63,4,-14,13
50909,1003,-166,-74,0,-20,15
50910,1002,-161,-94,6,-17,14
50911,997,-149,-72,7,-10,20
50912,997,-150,-65,0,-14,30
50913,997,-151,-76,-2,-16,34
50914,999,-150,-79,2,-7,35
50915,1004,-153,-64,6,-5,32
50916,1005,-150,-78,2,-11,28
50917,989,-154,-76,0,-11,25
50918,990,-162,-70,3,-4,17
50919,999,-142,-68,10,-9,11
50920,1000,-130,-76,14,-12,16
50921,987,-141,-75,10,-11,27
50922,1000,-151,-78,11,-14,30
50923,1005,-146,-92,18,-11,28
50924,1004,-141,-69,18,-6,33
50925,1000,-163,-63,4,-9,37
50926,997,-164,-92,0,-11,34
50927,994,-165,-83,10,-3,28
50928,1002,-162,-51,15,0,26
50929,998,-159,-62,10,-11,28
50930,991,-160,-80,7,-13,31
50931,992,-166,-82,13,-9,32
50932,1003,-163,-76,21,-7,28
50933,1008,-156,-78,18,-6,26
50934,994,-151,-77,10,-2,30
50935,996,-166,-77,9,-4,24
50936,998,-140,-85,16,-3,15
50937,997,-129,-67,17,0,18
50938,995,-135,-52,5,-2,28
50939,995,-147,-66,0,-11,35
50940,995,-142,-68,7,-8,39
50941,990,-145,-50,14,-4,46
50942,995,-143,-57,9,-14,59
50943,991,-148,-73,3,-21,67
50944,989,-162,-80,7,-16,67
50945,998,-161,-66,15,-16,60
50946,1007,-146,-71,14,-19,57
50947,996,-146,-72,2,-17,61
50948,999,-153,-75,2,-17,60
50949,1006,-145,-70,8,-16,56
50950,1000,-136,-67,11,-14,63
50951,993,-147,-58,4,-17,76
50952,1000,-158,-71,3,-23,81
50953,1000,-156,-71,12,-19,83
50954,997,-153,-66,13,-16,91
50955,998,-153,-65,4,-23,99
50956,1000,-162,-92,0,-24,105
50957,997,-178,-84,5,-14,105
50958,1006,-180,-73,8,-10,101
50959,1003,-184,-72,2,-14,95
50960,984,-183,-76,-3,-12,92
50961,993,-201,-71,-2,-11,84
50962,997,-198,-76,8,-10,70
50963,997,-193,-66,14,-11,65
50964,989,-201,-63,8,-11,68
50965,994,-212,-69,7,-16,67
50966,1001,-211,-82,14,-13,60
50967,1000,-210,-68,20,-7,56
50968,997,-221,-58,12,-11,52
50969,1001,-234,-79,6,-17,42
50970,995,-240,-79,8,-11,28
50971,997,-231,-69,13,-7,12
50972,1001,-208,-68,11,-10,2
50973,1002,-214,-85,4,-9,-4
50974,998,-219,-80,3,-3,-14
50975,1005,-212,-74,8,-2,-30
50976,997,-183,-71,7,-1,-39
50977,994,-182,-61,-1,1,-37
50978,987,-187,-64,-4,-2,-41
50979,995,-168,-73,7,-3,-48
50980,994,-148,-61,14,-2,-44
50981,995,-140,-60,11,-4,-33
50982,995,-131,-81,7,-7,-25
50983,999,-122,-81,11,-2,-18
50984,997,-124,-72,11,4,-10
50985,999,-124,-66,4,3,-2
50986,1002,-132,-72,-3,3,5
50987,988,-144,-66,-2,4,7
50988,986,-125,-54,12,2,4
50989,982,-107,-49,18,-4,9
50990,990,-119,-54,9,-8,28
50991,990,-132,-52,2,-13,42
50992,995,-132,-68,6,-16,47
50993,996,-127,-51,10,-14,58
50994,988,-142,-43,4,-22,71
50995,996,-161,-67,2,-32,76
50996,995,-165,-82,11,-30,75
50997,1005,-170,-66,18,-23,76
50998,1009,-167,-67,14,-25,75
50999,1004,-169,-86,6,-25,78
51000,995,-185,-77,7,-16,76
51001,998,-192,-75,13,-14,65
51002,1010,-186,-77,18,-14,58
51003,996,-190,-68,14,-9,58
51004,998,-207,-61,10,-11,53
51005,1001,-193,-69,16,-13,43
51006,993,-186,-62,21,-9,42
51007,997,-189,-44,14,-11,51
51008,998,-202,-70,4,-20,57
51009,995,-207,-86,5,-16,55
51010,996,-209,-70,11,-7,49
51011,1002,-210,-60,11,-10,37
51012,998,-212,-66,8,-15,25
51013,997,-212,-65,9,-12,14
51014,996,-202,-61,16,-12,0
51015,995,-184,-71,16,-16,-7
51016,998,-190,-72,10,-15,-2
51017,997,-190,-69,5,-14,2
51018,999,-194,-81,8,-14,0
51019,998,-175,-78,10,-7,0
51020,994,-171,-60,4,-2,2
51021,995,-178,-67,0,-9,-1
51022,996,-168,-73,1,-9,-10
51023,996,-154,-64,6,-5,-12
51024,998,-144,-61,6,-9,-10
51025,1004,-139,-72,6,-13,-4
51026,998,-130,-66,8,-7,6
51027,994,-136,-54,9,-8,18
51028,994,-138,-60,4,-13,30
51029,988,-149,-65,0,-14,43
51030,996,-171,-60,-1,-12,47
51031,1000,-181,-68,4,-16,42
51032,996,-172,-78,10,-14,35
51033,1007,-172,-62,11,-9,32
51034,1000,-169,-60,7,-11,28
51035,998,-162,-73,7,-13,26
51036,1005,-169,-64,7,-10,30
51037,999,-173,-56,7,-10,36
51038,999,-171,-67,5,-13,41
51039,993,-172,-64,6,-9,44
51040,996,-184,-59,7,-8,44
51041,991,-186,-67,8,-12,39
51042,992,-170,-68,7,-12,35
51043,994,-177,-60,4,-11,30
51044,997,-177,-50,2,-16,27
51045,991,-167,-62,2,-21,28
51046,990,-173,-57,2,-20,37
51047,996,-174,-59,2,-23,46
51048,1005,-178,-70,7,-23,51
51049,995,-187,-72,9,-18,55
51050,1003,-203,-67,4,-16,51
51051,998,-202,-76,4,-19,39
51052,999,-205,-84,4,-11,28
51053,995,-202,-66,4,-4,16
51054,1002,-197,-65,8,-7,4
51055,999,-184,-66,16,-6,0
51056,998,-186,-52,18,-3,2
51057,996,-171,-60,15,-7,7
51058,997,-171,-68,10,-8,11
51059,989,-175,-67,9,-4,18
51060,991,-180,-54,7,-4,20
51061,998,-172,-62,7,-11,17
51062,991,-179,-65,8,-11,16
51063,988,-185,-60,10,-13,14
51064,996,-185,-62,12,-18,7
51065,998,-173,-68,11,-18,7
51066,994,-178,-60,7,-15,12
51067,1002,-189,-65,4,-20,11
51068,1001,-184,-76,10,-21,7
51069,994,-181,-62,14,-14,7
51070,1003,-191,-56,9,-18,8
51071,1006,-181,-76,5,-23,2
51072,999,-175,-69,7,-16,0
51073,996,-179,-62,8,-13,0
51074,998,-171,-67,4,-18,0
51075,998,-168,-71,1,-15,3
51076,997,-180,-58,2,-12,4
51077,1001,-170,-65,6,-16,0
51078,996,-169,-74,9,-14,0
51079,994,-173,-61,5,-13,6
51080,995,-171,-74,2,-17,5
51081,999,-173,-83,9,-14,0
51082,1000,-178,-71,11,-4,0
51083,997,-186,-54,6,-6,1
51084,998,-182,-68,0,-10,-1
51085,998,-185,-74,2,-5,-4
51086,999,-186,-55,7,0,-7
51087,1000,-178,-54,5,-2,-10
51088,997,-178,-61,0,-6,-7
51089,987,-179,-61,0,-6,-6
51090,999,-170,-60,4,-7,-11
51091,1000,-155,-61,7,-9,-12
51092,991,-162,-60,-2,-11,-7
51093,989,-166,-51,-7,-14,-4
51094,997,-161,-60,-2,-16,-8
51095,992,-150,-52,2,-15,-5
51096,993,-159,-53,-1,-17,2
51097,1000,-159,-68,-5,-25,7
51098,996,-154,-88,2,-19,8
51099,1005,-158,-81,10,-10,8
51100,1013,-151,-79,9,-9,9
51101,1012,-149,-88,2,-7,12
51102,995,-163,-86,2,4,10
51103,1001,-160,-74,9,11,5
51104,1001,-144,-69,11,14,6
51105,998,-153,-64,5,18,14
51106,996,-161,-55,2,20,18
51107,994,-168,-46,10,15,16
51108,991,-153,-39,15,10,16
51109,986,-153,-25,9,2,28
51110,983,-172,-31,3,-10,35
51111,984,-178,-53,5,-16,36
51112,991,-169,-51,10,-16,37
51113,1001,-173,-54,9,-21,39
51114,1003,-181,-61,0,-26,40
51115,998,-188,-75,-4,-22,35
51116,1003,-186,-67,0,-18,25
51117,1010,-160,-67,1,-20,20
51118,999,-154,-69,-3,-16,28
51119,999,-175,-72,-5,-13,34
51120,1008,-181,-81,3,-9,28
51121,1012,-154,-80,11,0,28
51122,1005,-153,-69,4,6,36
51123,1013,-167,-83,-9,7,40
51124,1012,-171,-91,-9,16,37
51125,1004,-168,-65,-5,30,34
51126,992,-163,-40,-3,32,35
51127,990,-170,-27,-9,22,36
51128,978,-183,-35,-10,13,37
51129,987,-179,-30,2,8,34
51130,990,-173,-29,12,-1,35
51131,993,-180,-38,9,-11,43
51132,995,-203,-56,2,-16,49
51133,1001,-202,-57,5,-16,42
51134,1000,-188,-50,6,-15,33
51135,996,-191,-40,-6,-18,34
51136,994,-203,-57,-16,-28,31
51137,1001,-202,-74,-11,-28,18
51138,996,-178,-61,2,-18,9
51139,996,-174,-47,2,-18,8
51140,1011,-170,-64,-8,-24,11
51141,1001,-175,-83,-12,-18,14
51142,998,-170,-70,-2,-8,10
51143,1006,-147,-63,4,-7,9
51144,1001,-161,-71,0,-7,18
51145,993,-180,-72,-2,-2,20
51146,1006,-175,-68,9,2,8
51147,1004,-156,-63,18,4,1
51148,997,-151,-47,10,5,8
51149,993,-171,-55,-1,1,16
51150,990,-173,-60,4,1,13
51151,991,-169,-47,14,3,10
51152,989,-169,-22,11,0,16
51153,991,-176,-38,-2,-11,22
51154,984,-179,-55,-3,-17,21
51155,989,-179,-46,7,-16,14
51156,995,-179,-38,11,-22,9
51157,990,-180,-38,0,-31,13
51158,992,-190,-62,-7,-32,16
51159,999,-188,-56,5,-35,7
51160,1007,-162,-63,16,-35,2
51161,997,-162,-60,3,-33,16
51162,1007,-195,-76,-11,-34,25
51163,1010,-197,-102,-2,-28,14
51164,1011,-189,-75,15,-10,1
51165,1006,-185,-51,9,-4,0
51166,1009,-193,-67,-6,-14,-4
51167,999,-180,-89,-1,-7,-14
51168,999,-176,-64,18,6,-24
51169,1000,-157,-42,21,3,-25
51170,999,-150,-56,4,-3,-15
51171,984,-175,-56,-4,-1,-6
51172,987,-172,-40,5,-1,-14
51173,988,-150,-32,15,-7,-16
51174,989,-142,-30,6,-15,-5
51175,986,-170,-41,-7,-24,4
51176,996,-166,-61,0,-29,-2
51177,996,-143,-49,15,-25,-4
51178,993,-142,-18,9,-26,7
51179,1002,-157,-40,-7,-42,21
51180,1003,-183,-81,-4,-44,19
51181,1013,-182,-74,14,-30,11
51182,1025,-178,-56,14,-26,5
51183,1016,-193,-81,-4,-30,3
51184,1000,-215,-101,-11,-20,-7
51185,1012,-213,-81,3,-6,-31
51186,1018,-184,-72,10,-1,-49
51187,1002,-164,-68,1,2,-48
51188,994,-177,-60,-9,4,-43
51189,1005,-182,-72,0,5,-53
51190,1013,-163,-68,13,13,-57
51191,1008,-158,-51,2,19,-46
51192,1011,-194,-63,-19,15,-44
51193,1003,-208,-85,-24,16,-60
51194,996,-199,-69,-12,29,-84
51195,1005,-186,-43,-9,36,-99
51196,998,-185,-53,-20,28,-107
51197,1002,-182,-71,-30,26,-114
51198,996,-186,-62,-24,35,-126
51199,1005,-166,-55,-14,40,-136
51200,1004,-151,-45,-20,40,-133
51201,996,-169,-42,-30,38,-121
51202,1001,-165,-55,-29,37,-123
51203,1004,-154,-56,-17,37,-133
51204,1011,-151,-52,-18,39,-133
51205,1000,-177,-52,-34,41,-129
51206,1007,-191,-60,-35,40,-137
51207,1002,-183,-61,-27,45,-157
51208,1007,-174,-46,-29,52,-174
51209,1009,-182,-54,-45,53,-186
51210,1008,-198,-65,-56,53,-207
51211,1009,-197,-68,-52,59,-237
51212,999,-179,-53,-44,65,-264
51213,999,-144,-43,-46,65,-277
51214,1001,-143,-47,-53,62,-276
51215,1001,-142,-43,-47,59,-275
51216,1005,-124,-41,-29,58,-275
51217,1008,-110,-32,-23,59,-263
51218,996,-110,-21,-27,56,-245
51219,1008,-127,-36,-29,50,-231
51220,1002,-123,-34,-25,46,-225
51221,997,-116,-23,-23,46,-223
51222,991,-117,-11,-23,40,-221
51223,994,-115,-16,-21,30,-221
51224,997,-111,-20,-12,22,-223
51225,995,-94,-10,-2,15,-227
51226,1003,-68,-19,-7,5,-220
51227,1001,-69,-46,-18,0,-203
51228,1011,-80,-47,-20,1,-193
51229,1016,-75,-44,-16,2,-193
51230,1017,-80,-40,-21,2,-188
51231,1005,-82,-32,-31,2,-178
51232,1015,-89,-53,-32,1,-179
51233,1014,-67,-61,-30,4,-187
51234,1016,-46,-57,-34,11,-187
51235,1006,-35,-44,-46,16,-177
51236,1010,-26,-56,-56,18,-167
51237,1006,-22,-56,-58,25,-154
51238,1012,-14,-25,-62,30,-138
51239,1008,-14,-17,-74,25,-112
51240,1003,-10,-34,-83,21,-83
51241,999,-26,-35,-74,21,-59
51242,1010,-21,-24,-56,19,-44
51243,1005,-17,-19,-46,13,-21
51244,1002,-30,-18,-44,7,2
51245,1006,-50,-25,-34,-1,15
51246,1005,-52,-23,-18,-7,21
51247,1007,-58,-12,-9,-11,35
51248,1007,-74,-18,-13,-21,49
51249,1011,-95,-41,-14,-25,54
51250,1006,-103,-39,-3,-20,50
51251,1018,-97,-23,4,-18,44
51252,1017,-101,-30,-3,-25,40
51253,1012,-111,-53,-13,-28,33
51254,1019,-118,-49,-6,-23,18
51255,1024,-105,-36,1,-19,2
51256,1018,-90,-24,-8,-21,-1
51257,1006,-96,-36,-20,-21,5
51258,1020,-109,-48,-14,-19,2
