# falldetect-gkl fd_studio v1
# label=walking
# mount=neck
# subject=s01
# started=2026-09-20T19:00:55
# units=accel milli-g, gyro deci-dps
# firmware=unknown
# notes=
seq,ax,ay,az,gx,gy,gz
783067,155,-489,-841,-11,-40,32
783068,159,-490,-849,-8,-43,35
783069,152,-485,-852,0,-39,35
783070,148,-481,-848,6,-41,37
783071,147,-491,-841,16,-39,39
783072,145,-483,-846,20,-30,35
783073,147,-493,-831,23,-26,35
783074,139,-479,-837,14,-28,28
783075,160,-468,-829,18,-28,11
783076,159,-502,-837,-2,-18,18
783077,163,-490,-858,3,-9,34
783078,138,-487,-844,52,-14,40
783079,124,-485,-849,61,37,20
783080,185,-497,-844,49,9,-11
783081,180,-502,-864,65,26,-2
783082,151,-486,-843,84,-4,24
783083,172,-491,-843,85,11,30
783084,162,-492,-844,127,115,21
783085,155,-500,-831,184,135,7
783086,162,-509,-824,201,143,3
783087,159,-481,-826,121,1,26
783088,148,-498,-834,49,-81,46
783089,140,-507,-833,39,-70,35
783090,146,-476,-844,74,-67,18
783091,138,-524,-800,81,-87,35
783092,142,-508,-838,-21,-78,11
783093,162,-483,-840,-19,-81,0
783094,135,-483,-833,-16,-111,17
783095,137,-499,-821,-46,-102,19
783096,148,-489,-812,-172,-62,36
783097,148,-502,-831,-307,1,52
783098,143,-498,-852,-405,25,65
783099,162,-468,-844,-327,16,57
783100,153,-465,-807,-326,20,105
783101,195,-486,-765,-556,79,203
783102,206,-421,-718,-959,172,337
783103,180,-357,-763,-1563,262,613
783104,167,-306,-762,-1849,260,969
783105,195,-287,-775,-2045,189,1358
783106,212,-262,-834,-2348,144,1759
783107,218,-293,-934,-2487,142,2065
783108,228,-376,-997,-2396,211,2140
783109,102,-417,-1043,-2101,199,2060
783110,40,-399,-1059,-1738,198,1911
783111,-11,-415,-1066,-1388,242,1690
783112,43,-445,-1000,-988,325,1466
783113,73,-467,-1007,-528,361,1211
783114,53,-388,-935,-458,303,989
783115,53,-329,-885,-581,388,854
783116,103,-327,-828,-676,463,766
783117,113,-361,-835,-963,437,762
783118,121,-359,-880,-1225,410,766
783119,49,-374,-949,-1353,345,680
783120,13,-382,-998,-1274,349,438
783121,95,-347,-1044,-961,376,125
783122,154,-270,-962,-604,336,-32
783123,145,-253,-880,-440,255,-9
783124,122,-264,-905,-522,208,47
783125,132,-251,-929,-493,207,51
783126,148,-281,-950,-450,149,48
783127,138,-253,-960,-308,57,37
783128,141,-259,-923,-160,8,38
783129,136,-259,-909,-114,-10,65
783130,131,-269,-924,-127,-4,77
783131,131,-243,-1007,-150,0,83
783132,127,-262,-944,-67,0,98
783133,144,-241,-895,86,-20,108
783134,120,-281,-922,61,-74,118
783135,145,-237,-973,126,-102,119
783136,148,-274,-896,224,-119,128
783137,137,-235,-935,160,-165,198
783138,106,-233,-931,149,-135,311
783139,154,-239,-985,263,-149,337
783140,144,-241,-949,508,-242,355
783141,157,-246,-894,670,-290,402
783142,150,-286,-897,618,-284,408
783143,137,-280,-955,527,-287,442
783144,126,-266,-966,589,-294,468
783145,129,-273,-945,680,-278,508
783146,158,-266,-930,687,-247,629
783147,150,-260,-924,659,-231,777
783148,130,-257,-928,696,-263,912
783149,122,-290,-879,698,-293,1038
783150,119,-320,-868,490,-256,1155
783151,63,-358,-903,274,-262,1204
783152,16,-406,-921,216,-240,1162
783153,-72,-482,-943,310,-263,886
783154,-51,-473,-935,410,-270,483
783155,16,-428,-912,371,-149,175
783156,67,-364,-909,214,-58,25
783157,63,-326,-906,101,-16,10
783158,77,-324,-898,105,-27,31
783159,80,-336,-883,122,-68,72
783160,76,-345,-898,109,-115,109
783161,67,-342,-923,99,-138,135
783162,55,-356,-930,120,-133,147
783163,57,-363,-922,142,-117,142
783164,61,-357,-912,115,-86,114
783165,48,-369,-914,72,-58,95
783166,60,-361,-917,57,-51,61
783167,67,-360,-904,73,-60,35
783168,58,-352,-919,37,-43,31
783169,59,-345,-918,53,-32,33
783170,77,-336,-932,61,-17,51
783171,69,-348,-904,110,-48,85
783172,62,-347,-913,105,-50,112
783173,56,-368,-912,75,-58,133
783174,43,-381,-917,46,-54,121
783175,38,-380,-914,56,-44,77
783176,55,-378,-903,-18,-2,27
783177,71,-339,-939,-43,13,21
783178,50,-355,-910,85,-41,23
783179,54,-374,-907,88,-23,24
783180,61,-365,-930,4,11,25
783181,57,-377,-900,-82,41,25
783182,110,-320,-888,-112,46,17
783183,56,-364,-885,-37,-25,26
783184,69,-365,-929,-29,-66,32
783185,59,-367,-913,-25,-77,28
783186,76,-338,-935,-19,-2,24
783187,65,-345,-930,89,11,22
783188,62,-374,-909,82,30,28
783189,71,-328,-864,147,21,28
783190,52,-337,-831,21,-11,5
783191,91,-332,-964,44,-107,-84
783192,36,-290,-902,41,-27,129
783193,4,-448,-930,385,-63,98
783194,15,-447,-813,6,-74,42
783195,54,-270,-1055,-379,307,44
783196,106,-369,-965,-19,275,32
783197,106,-362,-826,378,-30,38
783198,55,-364,-805,300,-121,115
783199,31,-398,-869,16,-85,138
783200,43,-366,-990,-129,-18,86
783201,60,-371,-938,-109,52,51
783202,67,-359,-938,-81,124,37
783203,69,-346,-896,85,81,33
783204,60,-369,-898,121,63,36
783205,63,-383,-915,13,106,41
783206,60,-373,-909,-33,107,44
783207,66,-364,-871,-61,59,35
783208,68,-351,-879,-90,32,26
783209,70,-367,-897,-110,-3,25
783210,51,-380,-902,-169,5,12
783211,54,-366,-953,-242,60,1
783212,60,-396,-914,-140,37,-79
783213,295,-605,-995,-163,217,75
783214,-79,-228,-755,312,717,-44
783215,102,-255,-884,-218,42,49
783216,0,-340,-930,-271,-86,88
783217,76,-414,-984,-777,-39,12
783218,145,-364,-987,-657,280,51
783219,49,-302,-839,-511,413,107
783220,86,-344,-799,-686,355,171
783221,83,-343,-932,-1001,279,235
783222,31,-297,-1121,-814,366,167
783223,146,-268,-979,-77,233,51
783224,132,-266,-866,331,-56,89
783225,105,-308,-825,285,-131,205
783226,78,-371,-861,47,-112,276
783227,36,-392,-915,-175,-105,248
783228,26,-384,-993,-257,-34,108
783229,78,-309,-973,-282,90,35
783230,80,-329,-927,-340,194,47
783231,91,-327,-889,-428,243,55
783232,91,-308,-901,-488,221,51
783233,83,-296,-917,-375,183,29
783234,89,-334,-897,-442,156,57
783235,89,-296,-969,-487,172,55
783236,104,-303,-949,-392,148,37
783237,111,-308,-949,-366,88,34
783238,99,-280,-931,-296,107,37
783239,84,-291,-900,-235,144,23
783240,114,-283,-921,-231,67,-7
783241,113,-279,-949,-240,-45,9
783242,74,-289,-934,-168,-23,21
783243,87,-285,-946,-189,95,19
783244,119,-290,-962,-218,107,10
783245,106,-264,-944,-144,67,12
783246,95,-268,-919,-58,51,25
783247,107,-287,-922,-46,49,28
783248,110,-276,-930,-29,2,25
783249,106,-264,-933,66,-54,20
783250,101,-279,-933,129,-79,22
783251,98,-295,-931,124,-88,21
783252,94,-282,-941,101,-79,14
783253,99,-281,-948,86,-63,10
783254,91,-278,-930,95,-32,19
783255,123,-297,-936,110,-26,30
783256,96,-302,-939,135,-102,22
783257,75,-261,-916,160,-119,9
783258,95,-283,-918,185,-75,18
783259,113,-304,-930,209,-99,24
783260,96,-289,-951,212,-128,19
783261,92,-282,-949,213,-119,21
783262,92,-290,-924,237,-95,22
783263,95,-306,-910,229,-99,28
783264,86,-309,-920,186,-114,28
783265,88,-299,-936,167,-112,16
783266,90,-292,-948,178,-107,15
783267,91,-299,-933,207,-105,20
783268,89,-313,-922,219,-105,24
783269,92,-311,-922,202,-108,22
783270,88,-305,-931,185,-112,21
783271,84,-301,-939,191,-116,19
783272,89,-305,-934,210,-117,16
783273,84,-313,-925,217,-116,19
783274,80,-319,-923,212,-114,23
783275,89,-318,-922,206,-106,25
783276,84,-317,-925,205,-109,25
783277,81,-319,-922,218,-114,23
783278,83,-327,-923,209,-111,21
783279,81,-328,-922,176,-100,25
783280,74,-326,-921,133,-81,30
783281,77,-334,-921,100,-60,26
783282,81,-335,-920,75,-44,21
783283,79,-330,-918,49,-37,19
783284,86,-321,-920,28,-32,16
783285,83,-323,-926,30,-34,16
783286,88,-316,-922,48,-37,16
783287,87,-324,-930,70,-40,15
783288,83,-319,-921,85,-48,17
783289,77,-323,-925,104,-56,19
783290,78,-318,-922,132,-68,18
783291,78,-333,-924,156,-90,20
783292,72,-329,-917,163,-91,21
783293,78,-328,-919,137,-82,21
783294,81,-333,-917,106,-67,19
783295,78,-340,-920,71,-46,21
783296,74,-343,-915,36,-30,18
783297,77,-342,-920,6,-22,18
783298,76,-328,-920,-7,-9,18
783299,78,-338,-925,-5,-8,21
783300,78,-327,-916,6,-11,18
783301,85,-337,-919,18,-16,18
783302,75,-326,-918,32,-21,19
783303,75,-328,-921,32,-20,21
783304,88,-325,-937,41,-32,19
783305,69,-322,-929,92,-49,14
783306,87,-328,-917,149,-60,9
783307,78,-336,-922,149,-53,18
783308,81,-333,-931,126,-42,22
783309,80,-331,-934,148,-51,20
783310,82,-329,-917,200,-63,25
783311,88,-336,-904,213,-78,35
783312,83,-341,-915,143,-58,50
783313,68,-350,-926,121,-41,44
783314,61,-342,-909,156,-38,30
783315,65,-349,-907,175,-41,23
783316,86,-358,-916,114,-41,30
783317,64,-355,-919,51,-26,28
783318,76,-344,-914,30,-7,17
783319,81,-354,-902,26,-14,14
783320,101,-334,-929,-34,13,11
783321,98,-336,-902,51,-58,19
783322,86,-329,-921,75,-51,10
783323,81,-345,-912,90,-43,12
783324,73,-346,-918,86,-26,12
783325,72,-373,-914,26,9,25
783326,81,-346,-901,-26,32,17
783327,69,-354,-910,-22,11,14
783328,83,-349,-922,2,4,14
783329,70,-345,-941,42,2,15
783330,71,-342,-930,98,16,21
783331,88,-345,-911,122,28,38
783332,73,-355,-904,120,10,46
783333,82,-345,-901,182,-30,43
783334,85,-344,-911,157,-18,70
783335,73,-363,-924,140,-18,71
783336,76,-366,-911,165,-25,66
783337,71,-376,-913,116,0,65
783338,67,-373,-897,65,25,43
783339,71,-369,-905,4,53,34
783340,80,-357,-912,-45,65,22
783341,69,-347,-902,-50,39,24
783342,66,-347,-925,-39,25,28
783343,73,-370,-923,-7,34,34
783344,70,-360,-901,11,44,31
783345,78,-361,-893,6,33,30
783346,75,-357,-897,-45,41,34
783347,78,-349,-914,-140,72,46
783348,73,-355,-932,-188,107,55
783349,93,-346,-913,-147,96,58
783350,78,-335,-909,-169,126,75
783351,86,-341,-914,-168,119,100
783352,95,-336,-912,-161,115,142
783353,104,-336,-898,-143,117,188
783354,106,-333,-914,-116,114,228
783355,110,-325,-905,-105,95,270
783356,88,-329,-905,-168,112,323
783357,101,-343,-899,-242,148,357
783358,106,-361,-928,-333,184,392
783359,59,-356,-936,-426,206,415
783360,64,-354,-946,-377,308,398
783361,91,-326,-909,-357,358,370
783362,91,-316,-928,-510,309,361
783363,74,-319,-918,-657,304,373
783364,95,-325,-964,-826,373,391
783365,101,-337,-905,-868,366,388
783366,78,-312,-920,-975,338,378
783367,76,-311,-966,-1030,310,340
783368,72,-330,-923,-791,200,211
783369,97,-316,-889,-614,86,81
783370,83,-266,-918,-637,140,72
783371,97,-297,-907,-831,185,123
783372,90,-262,-957,-1054,130,124
783373,94,-231,-997,-1132,168,114
783374,65,-275,-906,-1067,261,68
783375,104,-242,-975,-1089,296,-33
783376,121,-190,-1013,-961,344,-69
783377,106,-206,-980,-956,453,-30
783378,121,-173,-1056,-907,564,63
783379,137,-115,-1043,-535,616,137
783380,133,-174,-931,-284,612,122
783381,137,-162,-926,-279,641,135
783382,122,-109,-922,-305,646,230
783383,137,-171,-916,-474,622,242
783384,219,-163,-1016,-403,654,345
783385,235,-169,-1058,-14,709,501
783386,232,-197,-1038,410,688,553
783387,165,-216,-959,866,592,518
783388,182,-227,-898,1491,424,434
783389,212,-214,-762,1675,281,464
783390,249,-272,-727,1339,133,568
783391,234,-262,-770,969,-66,693
783392,250,-253,-642,466,-258,853
783393,246,-247,-757,-576,-291,1124
783394,207,-213,-930,-1219,-386,1323
783395,128,-190,-955,-1071,-681,1351
783396,74,-176,-872,-627,-989,1271
783397,87,-228,-835,-139,-1162,1173
783398,103,-256,-803,-24,-1348,1106
783399,103,-221,-853,-164,-1525,1157
783400,59,-183,-898,-483,-1653,1331
783401,-5,-135,-899,-923,-1745,1673
783402,-63,-84,-941,-1284,-1722,2134
783403,-50,-105,-1104,-1458,-1496,2426
783404,-25,-150,-1212,-1313,-1215,2484
783405,-47,-206,-1240,-999,-945,2401
783406,-102,-189,-1149,-702,-629,2330
783407,-114,-182,-1102,-568,-59,2278
783408,-77,-181,-1125,-429,442,2219
783409,-40,-124,-1039,-385,676,2198
783410,-33,-107,-1017,-450,869,2238
783411,-32,-102,-985,-643,994,2302
783412,-22,-98,-967,-882,1068,2319
783413,-40,-67,-965,-1100,1074,2245
783414,-53,-56,-969,-1257,1056,2046
783415,-53,-21,-916,-1435,973,1825
783416,-81,5,-881,-1794,996,1631
783417,-52,20,-961,-2007,980,1392
783418,-30,42,-961,-2134,929,1226
783419,19,51,-878,-2494,882,989
783420,123,85,-966,-2920,844,853
783421,7,166,-945,-3374,896,839
783422,63,202,-1048,-3746,940,930
783423,225,275,-1071,-3923,921,1190
783424,0,318,-1025,-4089,969,1414
783425,-52,318,-1086,-4309,859,1432
783426,-122,405,-1025,-4569,670,1236
783427,-139,469,-1033,-4891,798,764
783428,-160,542,-1124,-4905,1012,165
783429,-152,589,-1181,-4597,1171,-506
783430,-119,642,-1224,-4212,1254,-1111
783431,-137,693,-1191,-3741,1294,-1499
783432,-114,763,-1227,-3482,1481,-1756
783433,-114,786,-1254,-3054,1706,-1810
783434,-185,822,-1281,-2814,1890,-1916
783435,-133,916,-1166,-2433,2315,-2126
783436,-216,1013,-1131,-2533,2992,-2116
783437,-231,942,-1209,-3034,3587,-2130
783438,-185,935,-1261,-3137,3710,-2399
783439,-271,942,-1290,-2697,3479,-2938
783440,-296,890,-1274,-2093,3201,-3867
783441,-185,921,-1207,-1624,2998,-5008
783442,-225,883,-1235,-1107,2803,-5836
783443,-179,849,-1215,-212,2721,-6401
783444,-122,798,-1101,600,2703,-6747
783445,-81,729,-1066,1096,2733,-6862
783446,-61,662,-1059,1611,2821,-6804
783447,-40,601,-977,2222,2871,-6627
783448,-13,558,-909,2700,2758,-6419
783449,14,473,-823,2903,2451,-6191
783450,46,417,-730,2763,1961,-5961
783451,57,393,-713,2460,1338,-5802
783452,81,367,-760,2292,630,-5687
783453,100,362,-739,2394,-80,-5526
783454,105,369,-709,2405,-745,-5362
783455,98,413,-757,2240,-1379,-5223
783456,82,463,-809,2241,-1945,-5139
783457,92,478,-795,2243,-2423,-5192
783458,67,507,-925,2419,-2827,-5171
783459,67,558,-816,2756,-3150,-5129
783460,65,575,-920,2874,-3400,-5073
783461,65,602,-908,3056,-3434,-5062
783462,55,609,-895,3399,-3056,-4866
783463,73,593,-876,3866,-2343,-4570
783464,48,623,-826,4252,-1570,-4203
783465,64,626,-804,4455,-827,-3876
783466,70,589,-765,4558,-218,-3582
783467,37,606,-752,4598,190,-3396
783468,49,625,-724,4588,383,-3327
783469,61,617,-697,4590,387,-3235
783470,67,587,-678,4748,254,-3145
783471,89,576,-671,5006,32,-3084
783472,122,575,-613,5267,-249,-2965
783473,158,565,-597,5520,-581,-2749
783474,151,542,-467,5462,-907,-2414
783475,169,496,-506,5071,-1080,-1930
783476,159,474,-499,4898,-1192,-1431
783477,170,471,-459,4888,-1332,-1024
783478,179,454,-434,4884,-1561,-625
783479,178,408,-398,4845,-1858,-208
783480,188,307,-378,4769,-2152,162
783481,197,334,-297,4683,-2413,546
783482,144,273,-317,4212,-2647,837
783483,164,278,-347,3841,-2877,966
783484,141,237,-299,3458,-3183,840
783485,182,201,-267,2769,-3536,580
783486,200,181,-261,1857,-3794,415
783487,240,182,-283,1032,-3851,537
783488,259,192,-314,426,-3659,996
783489,274,171,-377,35,-3232,1725
783490,270,173,-411,-250,-2670,2583
783491,256,128,-376,-224,-2016,3402
783492,262,112,-323,-420,-1283,4112
783493,217,123,-255,-959,-457,4784
783494,226,139,-277,-2069,487,5296
783495,233,200,-307,-3266,1520,6013
783496,92,-155,-248,-4397,2567,6909
783497,65,-65,-116,-6406,4202,8815
783498,-252,-364,-46,-9663,6480,11718
783499,-3473,4,-3191,-13184,8560,15856
783500,-15988,1903,-8288,-7785,16262,7961
783501,-742,1018,-487,-2262,21565,-466
783502,6,337,-3959,-54,14143,-1389
783503,143,-220,-2921,4454,4220,-1784
783504,568,-588,-1689,4227,-2658,-1860
783505,-371,-406,-556,902,-4518,-1028
783506,-368,342,-1161,-2623,-4262,-966
783507,-647,131,-737,-1142,-3948,-1010
783508,-516,418,-1143,610,-3245,-1159
783509,-159,189,-618,1530,-2322,-1210
783510,-534,111,-427,1580,-1755,-1150
783511,6,282,-618,-90,-1418,-1607
783512,-327,179,-668,-726,-1924,-1524
783513,-484,294,-638,-455,-2296,-2042
783514,-357,353,-742,154,-1622,-3073
783515,-733,146,-538,1311,-833,-3106
783516,-794,-192,-500,999,105,-2660
783517,-593,-370,-823,-114,1045,-2149
783518,-558,-428,-1032,44,1052,-1358
783519,-390,-344,-953,527,414,-545
783520,-382,-101,-880,-2,84,-52
783521,-477,28,-863,-294,-405,130
783522,-578,-3,-890,-245,-634,133
783523,-568,10,-788,-42,-359,84
783524,-542,85,-841,44,-51,25
783525,-435,8,-843,202,98,-59
783526,-432,1,-828,176,155,-102
783527,-467,26,-908,91,42,-119
783528,-433,34,-918,-88,-55,-193
783529,-409,202,-902,-403,-37,-375
783530,-318,146,-855,-563,-45,-774
783531,-497,139,-925,-612,-44,-1130
783532,-682,-22,-935,-159,-322,-1284
783533,-650,-77,-1076,25,-375,-1114
783534,-406,-8,-953,35,-359,-1016
783535,-323,102,-801,-143,-459,-1098
783536,-375,26,-806,-477,-700,-1264
783537,-351,139,-854,-786,-773,-1540
783538,-780,15,-978,-504,-1110,-1751
783539,-635,72,-930,-417,-970,-1696
783540,-338,55,-974,-442,-584,-1759
783541,-731,59,-883,221,-1167,-2125
783542,-942,17,-895,328,-1570,-2369
783543,-771,136,-977,-48,-1645,-2667
783544,-622,213,-1032,81,-1424,-3363
783545,-952,62,-1054,1472,-2065,-3828
783546,-971,-83,-898,1971,-1863,-4049
783547,-497,41,-778,1722,-1679,-4287
783548,-430,-70,-723,1653,-1863,-4551
783549,-470,-137,-736,1582,-1978,-4671
783550,-471,-196,-794,1661,-1759,-4579
783551,-254,-238,-639,1980,-1377,-4354
783552,-299,-442,-641,1920,-889,-3895
783553,-404,-539,-456,1969,-746,-3576
783554,-379,-669,-319,1477,-903,-3073
783555,-277,-701,-323,774,-928,-2342
783556,-54,-940,-464,375,-721,-1484
783557,-283,-513,-302,-83,-402,-513
783558,-414,-506,-518,-781,-665,-11
783559,-620,-430,-718,-949,-655,195
783560,-780,-415,-687,-763,-345,189
783561,-727,-396,-717,-632,-63,58
783562,-589,-354,-783,-387,163,-64
783563,-546,-374,-812,29,309,-138
783564,-561,-421,-789,398,366,-157
783565,-538,-434,-766,585,326,-123
783566,-515,-462,-738,659,236,-42
783567,-532,-452,-665,606,136,55
783568,-513,-461,-627,597,116,144
783569,-574,-477,-619,380,72,228
783570,-498,-456,-747,443,180,361
783571,-547,-376,-614,480,228,399
783572,-625,-408,-667,205,15,349
783573,-628,-413,-734,112,-42,283
783574,-560,-461,-751,352,126,254
783575,-519,-475,-704,655,317,307
783576,-585,-427,-643,623,289,339
783577,-559,-419,-652,431,158,360
783578,-588,-411,-658,205,-12,329
783579,-600,-416,-640,88,-67,284
783580,-616,-396,-641,25,-23,239
783581,-590,-468,-650,-56,33,168
783582,-589,-405,-544,55,256,158
783583,-535,-373,-727,-214,182,116
783584,-570,-450,-652,-302,254,88
783585,-565,-450,-751,-385,212,102
783586,-551,-420,-813,-274,121,134
783587,-611,-421,-813,-24,58,126
783588,-593,-406,-735,186,59,101
783589,-548,-440,-669,140,-14,80
783590,-543,-442,-645,86,-60,56
783591,-630,-436,-693,40,-63,97
783592,-566,-402,-698,198,70,79
783593,-588,-411,-676,198,99,30
783594,-551,-432,-669,100,51,-2
783595,-574,-428,-693,25,29,2
783596,-586,-428,-745,72,46,11
783597,-569,-433,-774,261,139,21
783598,-535,-450,-749,515,266,50
783599,-539,-454,-724,681,305,116
783600,-574,-468,-687,779,281,163
783601,-561,-424,-676,594,173,168
783602,-588,-436,-648,555,183,157
783603,-609,-434,-570,375,159,93
783604,-578,-435,-544,-30,68,54
783605,-550,-406,-640,-300,28,25
783606,-593,-445,-683,-229,103,-16
783607,-611,-455,-664,-189,281,-82
783608,-627,-463,-847,-70,354,-102
783609,-578,-426,-608,116,431,-67
783610,-471,-475,-642,-242,230,-86
783611,-483,-387,-746,-289,102,-38
783612,-547,-438,-760,-25,134,-42
783613,-590,-490,-714,45,119,-33
783614,-538,-455,-743,16,44,0
783615,-520,-444,-723,39,-3,28
783616,-524,-438,-701,74,-42,56
783617,-539,-442,-677,39,-96,79
783618,-559,-439,-675,-25,-119,86
783619,-578,-421,-688,-46,-98,72
783620,-583,-417,-709,18,-11,31
783621,-582,-439,-693,102,86,-23
783622,-536,-435,-690,112,123,-54
783623,-527,-455,-703,100,106,-46
783624,-530,-453,-723,116,77,-18
783625,-545,-448,-711,156,78,12
783626,-551,-440,-700,177,67,16
783627,-559,-455,-695,158,46,0
783628,-551,-443,-691,144,46,-1
783629,-541,-452,-697,146,53,0
783630,-537,-450,-680,154,81,8
783631,-543,-450,-676,109,78,16
783632,-541,-445,-673,46,61,10
783633,-548,-453,-689,-4,46,3
783634,-545,-438,-698,-11,56,7
783635,-600,-481,-729,146,180,32
783636,-433,-365,-738,175,227,-57
783637,-562,-484,-681,247,175,-41
783638,-538,-518,-678,171,156,37
783639,-503,-431,-673,-15,98,56
783640,-509,-435,-691,-65,49,53
783641,-558,-442,-742,-18,17,49
783642,-576,-478,-723,32,22,34
783643,-542,-455,-716,3,-2,26
783644,-507,-446,-707,21,-9,19
783645,-520,-461,-687,33,-21,32
783646,-536,-463,-689,-10,-60,53
783647,-542,-447,-707,-39,-74,63
783648,-550,-456,-713,-9,-49,47
783649,-551,-449,-695,16,-9,33
783650,-531,-451,-698,5,4,17
783651,-528,-452,-701,7,7,13
783652,-535,-454,-708,4,-7,20
783653,-540,-455,-706,0,-20,26
783654,-541,-447,-705,9,-18,25
783655,-536,-449,-684,21,-18,24
783656,-542,-454,-687,21,-14,23
783657,-537,-448,-701,2,-8,17
783658,-545,-451,-699,-11,-4,12
783659,-533,-459,-700,-10,-1,10
783660,-542,-451,-704,-9,2,11
783661,-536,-451,-703,-2,11,4
783662,-538,-453,-707,9,10,7
783663,-540,-461,-704,9,0,12
783664,-532,-453,-703,10,-4,14
783665,-537,-451,-702,18,-7,14
783666,-540,-457,-693,16,-6,18
783667,-534,-453,-694,3,-3,16
783668,-526,-452,-699,-2,-6,16
783669,-535,-453,-706,-4,-13,18
783670,-548,-453,-702,-2,-10,19
783671,-535,-456,-698,6,-4,13
783672,-528,-452,-703,17,0,11
783673,-531,-457,-699,30,2,9
783674,-532,-457,-691,31,1,10
783675,-535,-445,-694,21,6,9
783676,-534,-454,-693,10,15,5
783677,-530,-454,-700,2,20,2
783678,-532,-454,-704,-6,14,6
783679,-588,-425,-426,-249,55,-25
783680,-500,-494,-632,-179,73,-44
783681,-543,-487,-575,-267,39,12
783682,-528,-442,-633,-617,53,35
783683,-513,-417,-693,-760,128,-1
783684,-532,-446,-666,-794,186,-28
783685,-532,-463,-664,-857,214,-7
783686,-464,-426,-747,-929,202,35
783687,-485,-450,-735,-980,112,95
783688,-492,-487,-756,-983,70,205
783689,-443,-487,-771,-940,98,379
783690,-432,-474,-818,-791,129,561
783691,-429,-492,-796,-567,221,778
783692,-475,-455,-756,-280,392,1018
783693,-432,-448,-739,-136,547,1199
783694,-458,-354,-674,-161,588,1313
783695,-534,-349,-627,-212,629,1380
783696,-561,-365,-604,-294,863,1374
783697,-544,-346,-589,-355,1292,1395
783698,-481,-295,-655,-585,1491,1402
783699,-464,-226,-810,-854,1387,1332
783700,-566,-327,-950,-781,1304,1260
783701,-591,-280,-984,-421,1395,1217
783702,-351,-251,-821,-203,1277,1118
783703,-349,-330,-1039,297,1019,1199
783704,-928,818,-2686,646,754,1260
783705,-638,37,-879,3246,5,-733
783706,-726,-1056,-779,3617,-605,-1529
783707,-206,-633,-560,2905,-844,-966
783708,-451,-517,-686,2118,-1377,-539
783709,-439,-450,-816,1526,-1858,-248
783710,-439,-422,-863,1577,-1944,-42
783711,-489,-402,-853,1887,-1925,60
783712,-523,-396,-809,1960,-2140,81
783713,-552,-445,-803,1902,-2515,39
783714,-532,-442,-767,1829,-2885,29
783715,-592,-460,-735,1737,-3254,48
783716,-648,-379,-333,1351,-3787,44
783717,-714,-665,-713,1412,-3801,77
783718,-544,-533,-497,1748,-3323,117
783719,-1145,-464,-479,1267,-3788,97
783720,-487,-419,-718,868,-4417,-131
783721,-1043,-606,-538,896,-4661,-155
783722,-614,-497,-682,1442,-4439,-213
783723,-798,-433,-333,2270,-3986,-261
783724,-1384,-1074,914,2661,-5628,-469
783725,-1094,-874,-881,1946,-8931,-1533
783726,-824,-396,560,3029,-10630,-2959
783727,-1099,-687,-177,2992,-13377,-3454
783728,-989,-406,-134,640,-14891,-2857
783729,-1080,-290,-173,1279,-14227,-1721
783730,-1234,-462,-524,3302,-11037,-319
783731,-530,-711,-68,3577,-8219,1086
783732,-431,-527,338,2021,-7154,-546
783733,-453,-503,238,1398,-5970,-1521
783734,11,-357,828,1114,-4829,-1640
783735,-1110,-882,386,811,-4105,-1416
783736,-404,-650,886,784,-4153,-1673
783737,-863,-549,516,610,-4934,-1901
783738,-1547,-528,0,212,-5835,-932
783739,-734,-381,555,-126,-6935,-1514
783740,-596,-582,484,-562,-7585,-1594
783741,-664,-619,224,-693,-7665,-1815
783742,-233,-463,279,-312,-7046,-1814
783743,-498,-767,190,-229,-5526,-1845
783744,-293,-683,125,214,-4117,-1972
783745,-324,-666,61,532,-2961,-1890
783746,-206,-690,76,670,-2112,-1830
783747,-257,-688,20,686,-1519,-1705
783748,-169,-726,106,969,-996,-1543
783749,-108,-670,145,1496,-429,-1580
783750,-84,-716,-4,1783,494,-1526
783751,112,-565,349,2139,2062,-1508
783752,9,-479,494,3041,3179,-1759
783753,-216,-492,568,3640,3553,-1629
783754,-61,-416,724,3665,3356,-1050
783755,-703,-432,-204,3971,3162,-720
783756,-2693,-834,563,4560,3175,373
783757,-2226,-395,-371,4046,2422,-555
783758,-569,-266,874,3487,1068,-1449
783759,-217,-316,349,3636,501,-1428
783760,30,-709,381,4280,646,-1292
783761,-672,268,650,4775,871,-1306
783762,-175,-693,350,2854,-490,-1305
783763,-33,-547,816,3751,-1001,-1881
783764,107,-298,1012,4715,-1636,-1904
783765,-12,120,487,5281,-1780,-893
783766,-223,235,556,6450,-584,539
783767,-460,76,751,7967,1757,1702
783768,-708,-116,1080,8254,4385,1694
783769,-625,-299,1476,7167,6291,271
783770,-570,-223,2143,4908,6394,-1601
783771,-482,56,2269,2681,4795,-3041
783772,-560,193,2204,1002,2432,-2973
783773,-841,369,1642,-189,709,-1454
783774,-1027,332,1206,-267,504,180
783775,-958,-23,1082,-32,1071,1127
783776,-764,-207,1016,-13,1250,1038
783777,-597,-260,852,-237,1152,464
783778,-580,-385,681,-355,1470,-172
783779,-493,-406,574,-212,2199,-852
783780,-502,-400,493,213,3230,-1570
783781,-461,-360,637,634,4505,-2240
783782,-435,-311,642,891,5489,-2819
783783,-377,-302,788,1178,6014,-3353
783784,-229,-289,813,1181,6260,-3659
783785,-122,-246,767,1128,6552,-3504
783786,-126,-192,777,1015,6784,-2977
783787,-88,-57,702,791,6941,-2170
783788,-144,41,558,501,6866,-1110
783789,-181,359,671,398,6190,173
783790,-433,514,480,10,4627,2285
783791,-1261,-6,283,-499,3559,3884
783792,-2506,-221,205,-347,2541,3784
783793,-2778,204,368,655,1631,3032
783794,-1631,481,358,669,481,2175
783795,-1077,417,243,-195,-428,1169
783796,-778,411,153,-812,-1177,32
783797,-684,380,65,-782,-1708,-1036
783798,-676,235,350,-543,-2065,-1926
783799,-775,6,394,-363,-2114,-2487
783800,-796,-209,777,266,-1724,-2568
783801,-810,-386,1011,638,-793,-2200
783802,-741,-473,934,158,27,-1558
783803,-701,-438,821,-464,529,-774
783804,-655,-317,602,-894,950,-45
783805,-622,-184,355,-1092,1103,430
783806,-663,-83,255,-912,1123,553
783807,-785,-62,210,-667,928,501
783808,-945,-59,234,-259,792,317
783809,-1071,-94,353,-34,504,161
783810,-1124,-136,432,30,179,66
783811,-1084,-130,441,35,-70,35
783812,-960,-105,418,27,-251,-4
783813,-875,-95,413,39,-363,-65
783814,-808,-116,438,83,-382,-120
783815,-787,-146,487,103,-306,-136
783816,-797,-181,523,61,-158,-72
783817,-828,-179,501,11,24,38
783818,-870,-140,464,-14,148,126
783819,-915,-113,404,-22,152,152
783820,-941,-112,399,18,54,119
783821,-957,-131,418,49,-98,81
783822,-926,-138,441,67,-219,72
783823,-886,-123,457,79,-274,79
783824,-853,-121,470,75,-261,87
783825,-834,-118,484,62,-199,84
783826,-841,-114,487,40,-102,78
783827,-862,-116,497,18,6,69
783828,-894,-101,480,-4,88,39
783829,-913,-97,465,-27,121,-8
783830,-921,-111,459,-42,118,-59
783831,-915,-125,458,-53,99,-96
783832,-900,-128,449,-57,79,-107
783833,-875,-139,442,-56,61,-100
783834,-867,-141,425,-44,48,-78
783835,-860,-148,432,-26,31,-43
783836,-872,-148,440,-6,9,0
783837,-881,-144,430,13,-21,43
783838,-887,-138,439,32,-57,77
783839,-891,-134,447,44,-93,99
783840,-889,-127,447,50,-115,105
783841,-890,-126,461,50,-121,102
783842,-880,-117,464,46,-112,95
783843,-878,-107,468,38,-91,79
783844,-886,-114,474,27,-62,53
783845,-888,-117,471,12,-28,28
783846,-897,-118,479,-4,10,7
783847,-896,-115,462,-17,35,-14
783848,-886,-121,457,-24,44,-33
783849,-891,-120,451,-28,44,-46
783850,-886,-132,458,-31,42,-49
783851,-887,-134,451,-28,40,-46
783852,-882,-134,445,-22,34,-33
783853,-880,-130,440,-14,21,-17
783854,-877,-137,445,-5,2,0
783855,-887,-137,440,4,-16,16
783856,-885,-131,449,14,-33,32
783857,-886,-125,449,19,-45,45
783858,-888,-131,455,22,-56,51
783859,-887,-126,451,22,-63,51
783860,-891,-129,458,21,-62,49
783861,-883,-120,463,19,-55,44
783862,-882,-117,466,14,-42,37
783863,-885,-112,460,7,-31,25
783864,-878,-122,464,2,-20,12
783865,-884,-119,457,-4,-3,0
783866,-876,-119,461,-9,8,-4
783867,-880,-124,451,-14,21,-11
783868,-893,-133,451,-18,35,-21
783869,-893,-127,449,-19,35,-24
783870,-891,-132,446,-15,14,-14
783871,-885,-135,445,-7,-18,0
783872,-879,-132,446,1,-50,10
783873,-879,-130,446,7,-67,19
783874,-876,-127,455,5,-72,25
783875,-884,-129,460,9,-72,26
783876,-896,-133,472,11,-62,32
783877,-900,-137,467,11,-52,42
783878,-886,-121,447,1,-50,32
783879,-878,-104,456,-16,-63,5
783880,-884,-104,430,-116,-93,-29
783881,-902,-153,459,-45,-150,-64
783882,-890,-166,502,2,-147,-39
783883,-870,-159,470,12,-80,41
783884,-861,-130,447,18,-29,92
783885,-859,-104,440,18,-25,75
783886,-872,-118,468,16,-33,32
783887,-897,-139,475,14,-21,25
783888,-901,-127,472,7,5,36
783889,-897,-116,451,0,12,30
783890,-892,-120,444,-3,-8,2
783891,-887,-138,462,-6,-32,-16
783892,-881,-141,458,-11,-24,-9
783893,-871,-140,450,-9,0,18
783894,-867,-124,458,7,9,25
783895,-859,-113,434,9,-3,13
783896,-876,-125,445,-1,-11,4
783897,-904,-125,441,-33,-28,-8
783898,-924,-120,447,-84,-67,-35
783899,-915,-142,492,-23,-116,-60
783900,-913,-144,458,-22,-127,-56
783901,-869,-151,482,-10,-117,-32
783902,-846,-139,464,-3,-72,6
783903,-859,-133,460,0,-18,35
783904,-870,-138,464,-4,30,54
783905,-893,-130,421,-27,41,46
783906,-899,-133,446,-10,25,33
783907,-917,-131,459,-12,13,34
783908,-918,-139,462,-3,-35,14
783909,-905,-127,445,-21,-77,-11
783910,-897,-142,440,-37,-109,-21
783911,-864,-148,465,-23,-123,-16
783912,-851,-142,467,4,-122,-4
783913,-833,-142,476,6,-74,18
783914,-847,-146,464,7,-32,44
783915,-864,-133,466,-3,-9,66
783916,-882,-130,459,-39,-8,79
783917,-907,-137,426,-116,-67,94
783918,-883,-127,499,-130,-83,94
783919,-879,-134,448,-55,-102,98
783920,-885,-121,452,-109,-114,109
783921,-874,-106,467,-59,-130,86
783922,-883,-120,498,-166,-121,82
783923,-887,-130,458,-150,-119,56
783924,-875,-133,477,-74,-69,39
783925,-861,-125,494,-52,6,23
783926,-863,-124,487,-56,72,5
783927,-877,-127,477,-74,116,-8
783928,-878,-121,463,-84,130,-28
783929,-891,-146,498,-159,141,-22
783930,-892,-159,457,-128,134,-23
783931,-880,-140,447,-80,139,-27
783932,-873,-147,460,-89,126,-3
783933,-877,-148,430,-74,102,27
783934,-873,-140,439,-5,71,45
783935,-883,-138,441,23,39,67
783936,-897,-144,448,29,12,80
783937,-896,-133,448,34,-9,91
783938,-894,-130,455,41,-28,94
783939,-729,-776,-678,-308,-1083,471
783940,-829,-41,-186,616,-2914,1189
783941,-962,-115,653,1975,-3470,1259
783942,-904,-92,983,1901,-3237,1177
783943,-935,-109,611,1428,-2952,1253
783944,-841,-99,477,1292,-2835,948
783945,-713,-64,633,1503,-2899,560
783946,-805,-60,796,1450,-2782,403
783947,-837,-53,433,1456,-2212,287
783948,-700,-34,785,1457,-1993,364
783949,-826,-68,642,1745,-2059,312
783950,-618,32,880,1699,-1628,278
783951,-606,101,744,1490,-1841,742
783952,-579,98,960,1297,-1892,1288
783953,-631,216,613,715,-1624,1463
783954,-717,287,528,410,-1511,823
783955,-850,227,772,851,-1907,-107
783956,-872,137,714,984,-2051,-577
783957,-838,68,640,1122,-1632,-689
783958,-679,47,786,1165,-1256,-721
783959,-546,60,826,1113,-1664,-544
783960,-636,15,676,1131,-2035,-350
783961,-691,63,571,1189,-1955,-301
783962,-516,61,793,1240,-1832,-301
783963,-483,35,728,1236,-2072,-131
783964,-489,19,782,1131,-2164,60
783965,-520,-10,885,1236,-1885,96
783966,-525,38,908,1270,-1323,105
783967,-427,92,913,1036,-1093,237
783968,-289,204,808,863,-1300,352
783969,-477,57,665,964,-1706,589
783970,-601,32,656,1042,-1967,608
783971,-475,133,899,1188,-2137,257
783972,-672,62,708,1059,-2535,58
783973,-400,175,812,824,-2714,-84
783974,-120,246,963,719,-2690,123
783975,-509,144,1283,-403,-2173,261
783976,-181,180,678,-1447,-1365,644
783977,-520,216,503,-533,-1928,293
783978,-522,140,810,476,-3474,-442
783979,-299,280,1157,523,-4437,-1031
783980,-284,198,1125,-240,-4377,-1185
783981,-204,145,1115,-819,-3690,-1144
783982,-25,229,1021,-1037,-3154,-464
783983,-332,196,1117,-923,-2894,85
783984,-84,208,1142,-1066,-2960,-70
783985,-123,112,1097,-1306,-3022,-413
783986,-37,147,1069,-1358,-2842,-479
783987,-100,142,1122,-1468,-2287,-257
783988,-99,39,1099,-1730,-1710,-15
783989,-128,76,984,-1949,-1372,199
783990,-65,107,941,-2049,-1243,373
783991,-121,27,986,-1878,-1282,436
783992,467,159,1166,-1504,-1043,-733
783993,-748,-102,1089,-1554,-537,-148
783994,-297,14,909,-940,-2211,115
783995,73,102,1168,-383,-3932,-243
783996,186,23,1127,-241,-3930,-224
783997,244,0,1190,-220,-2515,-91
783998,127,-27,1083,-217,-809,8
783999,58,91,1089,-86,-264,20
784000,29,-71,996,4,-532,7
784001,121,30,1031,100,-714,0
784002,163,-2,1087,16,-354,8
784003,47,-7,1027,-72,81,25
784004,32,-20,1001,-87,100,28
784005,53,-25,1001,-72,15,29
784006,63,-26,1000,-70,5,28
784007,74,-29,1015,-87,89,27
784008,67,-20,1002,-123,219,27
784009,56,-25,1006,-154,347,29
784010,47,-34,1013,-165,403,27
784011,32,-54,1017,-154,411,21
784012,3,-50,1009,-88,294,14
784013,29,-41,987,-28,113,6
784014,47,-39,979,-32,100,2
784015,34,-44,988,-63,185,3
784016,18,-50,1011,-60,165,2
784017,34,-42,1026,-30,63,-7
784018,25,-41,1012,17,-74,-2
784019,34,-34,1003,29,-92,4
784020,35,-40,992,11,-55,4
784021,50,-43,1005,-4,-28,0
784022,33,-28,1014,-16,3,3
784023,25,-26,1025,-16,9,4
784024,34,-21,1030,-19,-7,2
784025,95,459,1240,-22,1,6
784026,-1,-6,1075,62,14,25
784027,18,-40,1041,-19,11,29
784028,27,4,1071,-48,17,25
784029,27,-32,1011,-46,27,25
784030,29,-28,1057,26,39,16
784031,39,-33,1024,29,44,16
784032,37,-26,1014,4,79,21
784033,18,-31,1026,-9,60,23
784034,30,-29,1030,-17,35,22
784035,35,-39,1062,-41,37,23
784036,15,0,974,-53,53,23
784037,25,-28,915,-56,51,18
784038,314,81,232,-693,204,-30
784039,-142,-180,902,-760,448,-31
784040,120,67,1409,-327,126,-55
784041,-6,26,1246,-268,353,-37
784042,-10,47,925,-4,9,6
784043,54,-99,1195,-43,342,37
784044,-28,-18,955,28,229,21
784045,10,30,1014,-49,520,40
784046,-79,-54,1014,-1,485,38
784047,-1117,-329,1328,1507,-802,92
784048,365,-348,1133,1010,-1182,10
784049,-1,-50,1259,644,-723,-4
784050,-131,1084,1763,674,-452,30
784051,133,-260,806,575,-718,46
784052,104,-129,918,376,-651,17
784053,16,313,1147,341,-350,-17
784054,-101,-210,1075,779,-50,9
784055,-72,46,1220,858,-61,-6
784056,187,46,1144,618,19,2
784057,-453,-117,1192,595,114,11
784058,-95,-194,1039,816,-415,7
784059,308,228,1194,-279,610,52
784060,-359,-151,1171,-399,627,-32
784061,44,-156,1119,49,153,-52
784062,77,213,848,765,406,-282
784063,-28,476,1060,1368,502,-212
784064,-144,-186,887,-76,420,-216
784065,53,-70,996,135,388,-45
784066,-56,19,853,714,294,53
784067,-13,64,889,966,-20,112
784068,6,84,933,229,-196,25
784069,14,42,961,9,-206,-4
784070,29,51,1024,-46,-191,-2
784071,44,55,1068,-62,-105,3
784072,42,51,1064,-81,0,8
784073,16,45,1069,-88,-3,11
784074,26,52,1072,-95,-16,7
784075,35,43,1043,-96,-6,14
784076,34,25,1019,-126,43,14
784077,31,33,1016,-122,94,25
784078,14,36,1001,-116,138,31
784079,19,37,1008,-104,125,29
784080,5,23,1013,-75,90,18
784081,16,26,1003,-70,102,11
784082,9,19,1005,-46,81,14
784083,2,22,1003,-11,65,18
784084,10,31,1012,-2,23,20
784085,0,28,998,36,-11,18
784086,28,37,1059,35,-66,16
784087,9,24,1051,39,-41,13
784088,-3,31,1034,34,-56,13
784089,4,27,1028,11,-71,13
784090,20,25,1016,7,-87,10
784091,4,25,1004,15,-119,7
784092,11,34,1012,37,-163,9
784093,17,23,1029,41,-200,11
784094,15,0,1050,32,-192,7
784095,21,23,1032,42,-198,6
784096,11,23,1017,56,-233,2
784097,14,26,1031,66,-287,-3
784098,15,23,996,90,-324,-9
784099,8,31,1027,119,-367,-15
784100,37,24,995,158,-403,-17
784101,23,40,994,170,-424,-30
784102,37,61,1001,222,-555,-18
784103,62,55,1029,181,-514,-11
784104,50,55,1014,132,-447,-2
784105,-91,87,992,285,-569,-116
784106,136,53,964,50,-749,-51
784107,76,24,1097,-7,-497,-14
784108,75,56,1006,25,-473,-18
784109,281,-7,1193,36,-441,18
784110,86,62,1005,-51,-571,30
784111,7,90,890,-11,-506,4
784112,70,55,996,-5,-528,-7
784113,14,91,939,-8,-486,-13
784114,113,28,1027,-24,-502,-18
784115,74,64,960,-25,-465,-16
784116,-7,180,896,95,-408,-33
784117,50,126,993,77,-409,-30
784118,171,-30,1111,29,-417,-3
784119,64,128,972,32,-438,-9
784120,111,90,1012,5,-436,-25
784121,114,33,1031,-2,-415,-1
784122,144,-10,1129,-33,-390,-2
784123,69,49,1010,-41,-436,-3
784124,123,60,1016,-21,-515,-6
784125,128,58,1001,-39,-545,-21
784126,166,111,1024,-67,-510,-23
784127,78,55,1011,-87,-529,-29
784128,142,53,1001,-86,-541,-83
784129,103,88,1004,-48,-498,-144
784130,-102,154,956,-22,-390,-320
784131,341,-69,879,29,-471,-316
784132,331,-59,987,14,-356,-244
784133,135,55,1004,21,-283,-152
784134,190,40,999,53,-263,-110
784135,187,-12,1045,30,-124,-263
784136,275,75,1037,34,-179,-297
784137,285,27,1055,-3,-294,-212
784138,128,55,1080,-99,-240,-203
784139,252,7,1009,-98,-371,-131
784140,-37,115,1039,-84,-370,-132
784141,60,384,942,-116,-354,-290
784142,359,36,999,170,-266,-347
784143,270,-68,985,17,-16,-405
784144,134,91,989,-130,-252,-476
784145,283,-28,995,21,-86,-739
784146,395,18,994,18,-272,-548
784147,274,9,1051,52,-172,-486
784148,372,-14,1050,203,-220,-529
784149,242,-29,1079,281,-340,-391
784150,360,-103,1008,365,-36,-309
784151,299,10,1018,912,459,-333
784152,119,89,941,1297,916,-269
784153,67,-40,857,1164,1406,-111
784154,213,-14,871,604,2273,138
784155,300,2,894,88,3229,108
784156,309,189,986,9,3788,255
784157,147,25,1197,249,3979,545
784158,65,-12,1185,263,3969,529
784159,11,96,1109,135,3666,553
784160,-69,129,1088,154,3463,690
784161,-13,148,1145,184,3536,707
784162,-100,30,1175,-2,3692,602
784163,-138,178,1019,-434,3667,455
784164,-257,156,1060,-714,3489,423
784165,-239,216,1058,-1067,3239,252
784166,37,250,903,-1316,3011,140
784167,-365,243,909,-1450,3162,62
784168,-166,163,1071,-1488,3221,-60
784169,-190,124,1081,-1837,3180,-2
784170,-341,77,920,-1916,2885,82
784171,-464,7,900,-1727,2702,70
784172,-384,-36,893,-1549,2521,27
784173,-449,-23,769,-1301,2096,2
784174,-339,-39,788,-1177,1536,125
784175,-379,-79,692,-1098,1018,301
784176,-388,-76,680,-847,763,329
784177,-446,-63,657,-512,620,298
784178,-528,-32,708,-176,464,174
784179,-506,-15,796,0,99,60
784180,-467,-46,817,48,-362,10
784181,-411,-70,833,133,-712,17
784182,-362,-82,877,279,-874,53
784183,-365,-68,930,389,-871,119
784184,-369,-29,994,429,-780,151
784185,-382,-8,1008,304,-676,151
784186,-390,21,1020,192,-532,123
784187,-382,6,1092,126,-368,51
784188,-397,12,1062,7,-188,20
784189,-378,23,1047,-133,4,-16
784190,-362,12,989,-287,203,-46
784191,-351,-3,957,-385,341,-90
784192,-350,-30,917,-457,445,-129
784193,-350,-44,910,-448,524,-149
784194,-369,-60,890,-436,572,-100
784195,-389,-70,887,-316,567,-66
784196,-406,-66,892,-179,536,-14
784197,-408,-57,895,-89,469,53
784198,-416,-38,797,-48,378,96
784199,-428,-28,968,-72,331,62
784200,-432,-40,818,-329,162,49
784201,-377,-80,909,-93,114,-27
784202,-398,-81,910,23,96,9
784203,-412,-69,898,67,70,63
784204,-431,-47,919,108,18,85
784205,-436,-9,913,63,-51,55
784206,-416,-30,923,-6,-96,9
784207,-406,-59,924,-38,-90,-9
784208,-393,-73,942,-11,-18,7
784209,-410,-74,937,30,70,46
784210,-408,-52,966,105,126,70
784211,-509,-198,939,107,232,166
784212,-408,-96,811,188,199,338
784213,-433,-112,889,589,179,371
784214,-437,-223,1240,1078,183,575
784215,-421,-20,1120,968,258,764
784216,-386,25,1026,601,411,787
784217,-386,66,928,306,639,732
784218,-414,82,915,214,878,599
784219,-453,118,955,79,872,421
784220,-434,154,967,-231,918,133
784221,-412,114,934,-636,1043,-136
784222,-391,120,771,-969,1131,-428
784223,-467,-12,856,-755,1012,-604
784224,-442,-36,889,-759,903,-551
784225,-483,-89,825,-753,735,-374
784226,-519,-181,789,-676,561,-157
784227,-509,-212,792,-443,541,2
784228,-536,-169,777,-182,431,194
784229,-558,-94,771,117,282,343
784230,-547,-43,792,321,105,395
784231,-517,13,810,312,-89,382
784232,-519,45,802,208,-259,294
784233,-504,29,853,168,-389,142
784234,-488,2,865,43,-454,14
784235,-474,-3,885,-60,-469,-70
784236,-474,-23,918,-110,-424,-129
784237,-489,-45,947,-139,-322,-160
784238,-488,-65,948,-150,-189,-140
784239,-475,-79,950,-95,-44,-77
784240,-476,-57,944,-38,122,-12
784241,-481,-27,932,-28,280,13
784242,-490,-28,911,-42,406,15
784243,-495,-14,879,-60,470,-9
784244,-513,2,881,-114,471,-61
784245,-519,10,858,-238,434,-152
784246,-508,-46,864,-368,380,-242
784247,-520,-80,836,-401,332,-265
784248,-503,-100,839,-343,275,-245
784249,-553,-95,840,-263,188,-170
784250,-546,-143,813,-138,67,-84
784251,-494,-115,814,-18,-48,19
784252,-508,-86,816,130,-140,126
784253,-508,-52,805,193,-224,168
784254,-501,-34,833,189,-303,154
784255,-519,-41,838,156,-388,123
784256,-513,-74,868,182,-462,121
784257,-498,-77,898,231,-484,156
784258,-487,-35,887,235,-434,189
784259,-488,-18,907,205,-364,175
784260,-502,-25,906,172,-298,132
784261,-489,-20,939,94,-217,81
784262,-487,-20,921,-75,-135,1
784263,-472,-7,898,-140,-50,-70
784264,-468,-44,888,-145,32,-83
784265,-492,-52,883,-151,99,-74
784266,-510,-61,896,-138,100,-67
784267,-512,-83,905,-74,76,-39
784268,-496,-70,869,-28,49,0
784269,-479,-49,852,1,32,37
784270,-474,-35,849,12,14,39
784271,-494,-52,857,25,-11,37
784272,-497,-62,864,42,-61,38
784273,-500,-63,865,77,-114,62
784274,-500,-50,874,98,-167,79
784275,-494,-49,881,111,-205,87
784276,-487,-40,891,109,-219,89
784277,-475,-31,898,95,-207,79
784278,-473,-29,897,65,-164,60
784279,-479,-32,905,23,-96,35
784280,-480,-26,906,-18,-23,4
784281,-487,-40,896,-49,30,-19
784282,-488,-47,905,-67,65,-26
784283,-486,-45,898,-76,91,-29
784284,-488,-51,879,-73,113,-27
784285,-480,-57,874,-63,121,-21
784286,-494,-49,874,-47,116,-10
784287,-491,-43,855,-40,93,-2
784288,-494,-50,857,-32,44,0
784289,-495,-60,862,-9,-4,7
784290,-487,-44,857,5,-39,16
784291,-493,-55,878,18,-64,25
784292,-494,-49,879,19,-72,27
784293,-481,-51,890,21,-74,27
784294,-487,-47,888,21,-65,29
784295,-489,-30,887,4,-56,19
784296,-487,-45,904,-14,-35,2
784297,-490,-45,884,-46,-6,-14
784298,-489,-43,885,-64,14,-26
784299,-488,-44,880,-84,16,-42
784300,-487,-60,874,-93,10,-53
784301,-496,-59,882,-93,12,-38
784302,-493,-61,888,-66,17,-26
784303,-492,-50,880,-63,18,-27
784304,-493,-60,876,-67,16,-29
784305,-489,-57,879,-76,10,-31
784306,-491,-62,881,-72,6,-28
784307,-492,-53,862,-67,-15,-26
784308,-492,-67,876,-57,-37,-25
784309,-485,-68,871,-36,-46,-11
784310,-484,-65,882,0,-39,16
784311,-491,-57,878,25,-30,36
784312,-494,-51,879,25,-21,36
784313,-487,-38,882,16,-11,25
784314,-471,-37,891,-2,-6,10
784315,-498,-53,884,-39,-16,-21
784316,-483,-50,876,-87,28,-41
784317,-528,-60,879,-83,44,-21
784318,-521,-73,891,-58,11,-28
784319,-484,-68,881,-51,-10,-24
784320,-481,-66,878,-45,-1,-11
784321,-487,-68,884,-11,12,9
784322,-479,-62,873,-11,43,10
784323,-499,-67,872,-7,53,16
784324,-499,-57,876,-11,31,10
784325,-500,-56,865,-17,-7,5
784326,-487,-71,874,-11,-48,4
784327,-486,-69,872,3,-58,14
784328,-488,-66,881,22,-42,30
784329,-494,-61,877,28,-28,39
784330,-498,-56,882,14,-28,24
784331,-499,-63,895,-1,-34,16
784332,-508,-50,880,-21,-47,9
784333,-491,-54,882,-68,-78,-12
784334,-494,-93,856,-56,-136,-24
784335,-473,-92,847,11,-195,16
784336,-464,-78,859,95,-228,68
784337,-469,-61,872,130,-222,103
784338,-480,-62,896,137,-190,120
784339,-483,-55,892,105,-150,126
784340,-497,-48,909,90,-128,116
784341,-490,-43,909,70,-107,89
784342,-481,-43,911,42,-74,60
784343,-478,-44,901,0,-24,32
784344,-473,-43,897,-28,27,7
784345,-480,-45,898,-56,77,-17
784346,-486,-59,888,-79,110,-32
784347,-495,-59,885,-95,114,-40
784348,-485,-69,871,-91,104,-40
784349,-487,-75,869,-64,83,-23
784350,-492,-77,862,-30,56,4
784351,-484,-66,858,-7,17,18
784352,-490,-68,853,9,-27,32
784353,-478,-62,852,28,-65,46
784354,-484,-64,871,42,-88,56
784355,-494,-62,879,44,-98,65
784356,-484,-58,883,49,-105,63
784357,-481,-57,895,39,-103,54
784358,-485,-51,893,35,-86,50
784359,-488,-55,898,21,-60,46
784360,-478,-54,896,-4,-21,34
784361,-485,-50,892,-15,14,19
784362,-480,-54,888,-33,40,3
784363,-485,-52,886,-47,52,-11
784364,-488,-60,883,-53,51,-20
784365,-487,-60,866,-49,42,-16
784366,-488,-67,881,-37,28,-7
784367,-482,-64,879,-23,16,2
784368,-483,-68,878,-9,8,12
784369,-487,-64,877,0,1,18
784370,-488,-53,873,1,-7,16
784371,-491,-47,883,0,-25,13
784372,-495,-60,877,-4,-49,10
784373,-487,-54,873,-15,-71,2
784374,-485,-65,880,-23,-87,-4
784375,-487,-66,884,-15,-88,0
784376,-491,-62,885,-11,-85,2
784377,-489,-60,884,-4,-86,0
784378,-484,-64,884,-1,-86,0
784379,-476,-59,898,4,-73,0
784380,-475,-55,894,9,-40,1
784381,-477,-69,894,-3,-10,0
784382,-484,-71,889,-12,9,-2
784383,-487,-65,879,-11,16,2
784384,-482,-62,883,-9,14,4
784385,-485,-56,870,-18,5,-1
784386,-483,-66,869,-17,-7,-3
784387,-484,-79,871,1,-17,-4
784388,-482,-78,867,23,-29,8
784389,-485,-85,864,74,-63,33
784390,-487,-87,870,124,-108,72
784391,-493,-61,866,142,-164,103
784392,-481,-50,871,141,-200,96
784393,-468,-47,887,116,-200,64
784394,-474,-66,884,111,-172,35
784395,-485,-59,870,74,-172,45
784396,-481,-49,907,71,-157,49
784397,-475,-40,892,53,-133,41
784398,-455,-52,895,25,-87,30
784399,-452,-62,894,11,-28,26
784400,-465,-60,888,23,14,32
784401,-476,-39,886,33,16,34
784402,-480,-42,901,17,-11,20
784403,-474,-56,898,-2,-39,2
784404,-467,-65,887,-6,-47,6
784405,-463,-57,887,7,-35,20
784406,-480,-58,876,13,-22,29
784407,-489,-48,876,8,-30,25
784408,-479,-42,891,-10,-40,9
784409,-468,-63,892,-23,-42,0
784410,-467,-57,892,-28,-29,-2
784411,-473,-44,892,-23,-8,2
784412,-475,-56,893,-23,9,2
784413,-471,-56,893,-27,17,-1
784414,-472,-64,886,-26,21,0
784415,-470,-64,888,-16,19,7
784416,-477,-53,882,-7,11,13
784417,-479,-59,881,-7,-1,12
784418,-460,-39,882,-1,-7,19
784419,-471,-41,894,-49,-5,-26
784420,-487,-94,892,-58,2,-37
784421,-483,-62,876,-41,8,-7
784422,-475,-84,891,14,-6,30
784423,-474,-69,855,52,-17,71
784424,-474,-60,861,95,-53,89
784425,-471,-40,872,84,-105,73
784426,-474,-73,878,86,-139,63
784427,-469,-59,874,81,-151,68
784428,-469,-61,879,109,-149,86
784429,-466,-72,888,131,-153,106
784430,-473,-57,896,122,-146,112
784431,-478,-53,928,109,-155,111
784432,-457,-37,903,70,-159,98
784433,-449,-29,891,74,-166,79
784434,-451,-35,899,52,-148,46
784435,-451,-51,895,35,-112,34
784436,-456,-42,905,30,-66,37
784437,-463,-23,902,25,-27,39
784438,-464,-40,914,14,-11,23
784439,-480,-32,899,-39,-6,-7
784440,-477,-60,911,-21,-21,1
784441,-460,-60,882,-16,-21,11
784442,-447,-39,891,-20,-7,12
784443,-457,-33,877,-35,0,7
784444,-480,-78,909,-4,-16,6
784445,-469,-63,872,-7,-41,10
784446,-454,-63,893,33,-49,43
784447,-465,-54,896,55,-44,65
784448,-458,-62,901,52,-25,83
784449,-460,-61,840,17,-5,112
784450,-476,-52,898,140,-94,133
784451,-473,-40,885,133,-164,124
784452,-461,-60,876,133,-207,117
784453,-456,-44,879,131,-232,119
784454,-445,-39,877,124,-229,115
784455,-467,-40,895,184,-240,144
784456,-469,-38,908,185,-255,152
784457,-472,-23,921,109,-256,130
784458,-436,-20,887,77,-248,100
784459,-434,-28,922,97,-214,94
784460,-453,-27,902,47,-144,101
784461,-435,-17,914,-23,-77,53
784462,-451,-39,945,6,-22,15
784463,-460,-28,927,-11,19,17
784464,-463,-32,927,-34,37,5
784465,-450,-25,912,-58,54,-10
784466,-449,-36,911,-73,69,-21
784467,-444,-51,890,-59,79,-16
784468,-445,-60,889,-19,71,7
784469,-447,-20,887,-8,66,28
784470,-453,-33,885,1,37,25
784471,-461,-39,892,11,1,21
784472,-459,-52,894,31,-28,30
784473,-467,-41,930,56,-55,48
784474,-447,-21,898,38,-67,32
784475,-442,-30,905,-7,-60,3
784476,-449,-41,903,-12,-39,-2
784477,-451,-50,907,6,-14,11
784478,-446,-53,902,26,1,32
784479,-461,-38,898,46,6,63
784480,-458,-24,911,52,-27,63
784481,-461,-16,898,30,-49,32
784482,-436,-21,902,-21,-35,-2
784483,-441,-42,905,-43,-7,-16
784484,-452,-32,909,-45,27,-18
784485,-453,-31,926,-51,59,-26
784486,-456,-30,919,-72,88,-37
784487,-452,-28,924,-89,112,-53
784488,-451,-29,920,-116,139,-63
784489,-439,-38,902,-156,182,-84
784490,-454,-57,898,-145,246,-84
784491,-470,-40,936,-184,289,-78
784492,-461,-70,899,-60,269,-69
784493,-508,-32,902,-102,275,-51
784494,-488,-27,884,-154,210,-76
784495,-442,-90,845,-134,135,-77
784496,-447,-83,841,-43,95,-20
784497,-470,-57,859,28,46,32
784498,-480,-44,862,44,-18,42
784499,-467,-44,871,25,-91,30
784500,-479,-24,898,-7,-147,5
784501,-473,-49,906,-40,-170,-20
784502,-469,-59,914,-42,-164,-24
784503,-458,-68,915,-23,-134,-2
784504,-450,-61,916,11,-77,29
784505,-455,-50,918,35,-11,45
784506,-462,-16,907,2,47,23
784507,-471,-27,908,-56,77,-23
784508,-473,-28,903,-140,94,-78
784509,-473,-65,897,-147,104,-94
784510,-467,-67,885,-103,114,-77
784511,-467,-55,898,-98,125,-55
784512,-468,-67,881,-77,120,-42
784513,-469,-65,867,-63,108,-25
784514,-467,-64,860,-33,77,-12
784515,-478,-59,880,4,34,2
784516,-477,-45,873,-23,-6,-6
784517,-486,-73,887,1,-45,0
784518,-466,-69,880,23,-68,10
784519,-468,-59,888,16,-70,20
784520,-464,-66,895,32,-60,25
784521,-471,-51,896,10,-48,18
784522,-464,-59,901,-2,-19,14
784523,-469,-45,885,-18,4,8
784524,-470,-49,897,-11,15,10
784525,-477,-43,901,-34,25,-4
784526,-467,-60,897,-62,48,-23
784527,-461,-69,879,-51,77,-14
784528,-469,-54,869,-40,91,-3
784529,-476,-57,874,-30,77,0
784530,-484,-57,857,-35,42,0
784531,-471,-56,866,-28,-2,-3
784532,-474,-57,874,-23,-46,-7
784533,-472,-81,885,2,-61,4
784534,-466,-92,895,62,-47,38
784535,-478,-67,895,93,-27,78
784536,-492,-38,894,88,-25,81
784537,-494,-24,887,42,-46,43
784538,-485,-30,897,-24,-77,-7
784539,-459,-67,887,-58,-82,-35
784540,-460,-93,894,-23,-40,-14
784541,-466,-70,895,18,13,29
784542,-482,-53,898,38,46,52
784543,-483,-36,884,29,30,42
784544,-488,-43,879,1,-15,12
784545,-476,-63,889,-19,-53,-10
784546,-467,-83,900,-5,-33,-2
784547,-465,-70,881,18,7,26
784548,-479,-52,894,32,21,39
784549,-479,-47,892,5,17,21
784550,-480,-51,881,-21,11,0
784551,-470,-64,877,-28,2,-8
784552,-472,-73,885,-21,-7,-4
784553,-469,-64,887,0,-7,8
784554,-473,-61,874,11,-14,17
784555,-481,-62,883,54,-19,35
784556,-500,-39,895,49,-35,31
784557,-485,-45,889,21,-60,0
784558,-465,-60,910,22,-66,-19
784559,-467,-81,887,15,-58,2
784560,-464,-61,881,25,-28,34
784561,-472,-51,884,31,2,50
784562,-476,-57,888,25,14,48
784563,-470,-58,888,4,9,39
784564,-454,-76,893,14,17,46
784565,-460,-74,887,44,46,78
784566,-474,-77,893,60,100,140
784567,-460,-84,915,93,147,191
784568,-490,-31,897,63,192,197
784569,-502,-37,890,96,185,204
784570,-516,14,877,78,89,128
784571,-495,11,887,-20,-2,0
784572,-502,-39,891,-118,-46,-88
784573,-504,-73,912,-151,-64,-112
784574,-500,-72,914,-137,-58,-91
784575,-502,-71,914,-106,-49,-65
784576,-499,-50,924,-101,-31,-49
784577,-489,-32,928,-155,-16,-79
784578,-477,-47,927,-231,7,-133
784579,-470,-57,916,-297,52,-178
784580,-467,-64,893,-327,135,-196
784581,-458,-78,894,-342,229,-198
784582,-465,-82,874,-333,301,-189
784583,-482,-95,872,-312,334,-168
784584,-497,-87,854,-292,307,-154
784585,-492,-96,842,-241,239,-123
784586,-497,-97,842,-198,162,-88
784587,-483,-92,848,-165,102,-72
784588,-486,-84,837,-140,74,-67
784589,-501,-98,856,-107,50,-50
784590,-514,-93,857,-98,4,-49
784591,-500,-96,853,-72,-58,-37
784592,-491,-98,847,-34,-109,-11
784593,-501,-80,848,-18,-137,9
784594,-498,-72,865,-18,-182,-9
784595,-501,-79,856,-9,-219,-15
784596,-497,-81,856,53,-228,-4
784597,-474,-117,913,0,-234,-19
784598,-444,-105,870,-86,-185,-47
784599,-444,-124,884,-40,-65,-7
784600,-467,-100,889,7,65,39
784601,-503,-89,890,30,129,64
784602,-523,-68,894,-5,102,37
784603,-516,-75,883,-57,18,-11
784604,-503,-81,870,-105,-62,-56
784605,-478,-110,877,-112,-81,-68
784606,-471,-119,876,-85,-46,-44
784607,-483,-113,886,-42,-2,-4
784608,-507,-85,870,-36,1,5
784609,-500,-83,872,-50,-30,-9
784610,-487,-87,871,-71,-74,-35
784611,-485,-107,876,-84,-90,-47
784612,-472,-112,872,-70,-65,-37
784613,-480,-112,871,-39,-29,-16
784614,-490,-102,862,-24,-22,2
784615,-498,-93,881,-15,-35,7
784616,-499,-101,876,-20,-71,0
784617,-492,-101,878,-32,-114,-8
784618,-482,-104,883,-23,-140,-4
784619,-482,-105,883,-11,-145,2
784620,-470,-106,874,0,-132,7
784621,-473,-96,870,0,-98,12
784622,-475,-98,875,4,-72,18
784623,-472,-103,874,4,-60,16
784624,-491,-97,870,14,-54,29
784625,-494,-91,878,18,-71,26
784626,-473,-100,874,13,-91,21
784627,-472,-109,872,11,-98,21
784628,-468,-117,882,23,-93,28
784629,-476,-95,878,43,-68,51
784630,-488,-97,890,47,-76,51
784631,-474,-103,889,49,-83,39
784632,-477,-99,890,36,-62,43
784633,-478,-87,880,25,-44,42
784634,-476,-96,875,25,-38,34
784635,-476,-101,891,31,-30,36
784636,-476,-100,888,19,-18,30
784637,-472,-103,882,14,-2,30
784638,-480,-101,877,21,12,44
784639,-484,-98,874,33,-2,60
784640,-478,-101,869,54,-39,63
784641,-474,-86,878,56,-79,57
784642,-465,-87,852,69,-102,53
784643,-467,-102,871,84,-123,58
784644,-472,-111,860,115,-164,72
784645,-478,-109,851,154,-204,111
784646,-472,-94,858,204,-263,132
784647,-472,-85,877,228,-296,135
784648,-480,-83,880,221,-326,130
784649,-482,-74,874,232,-327,119
784650,-476,-77,901,231,-331,94
784651,-453,-78,945,228,-315,74
784652,-462,-80,903,169,-352,59
784653,-473,-77,894,177,-323,56
784654,-432,-88,920,162,-238,71
784655,-450,-79,887,162,-201,67
784656,-453,-72,906,130,-162,81
784657,-439,-72,887,131,-159,79
784658,-449,-82,901,142,-158,74
784659,-448,-72,897,107,-144,72
784660,-459,-60,886,118,-160,52
784661,-451,-63,898,179,-140,23
784662,-447,-70,900,164,-169,33
784663,-439,-72,891,176,-271,28
784664,-445,-71,906,203,-322,31
784665,-416,-82,907,186,-335,58
784666,-444,-76,869,224,-319,79
784667,-425,-69,939,261,-231,103
784668,-449,-53,905,224,-224,99
784669,-419,-34,943,210,-247,87
784670,-433,-40,925,174,-281,67
784671,-433,-52,904,169,-226,29
784672,-397,-59,934,158,-142,25
784673,-429,-68,901,105,-182,60
784674,-422,-48,925,106,-173,56
784675,-418,-49,922,88,-122,53
784676,-419,-48,929,96,-74,47
784677,-412,-50,932,73,-55,56
784678,-417,-44,916,82,-68,52
784679,-424,-47,924,77,-66,62
784680,-424,-46,914,56,-72,63
784681,-417,-45,908,88,-94,59
784682,-418,-46,917,81,-96,56
784683,-423,-49,915,49,-84,52
784684,-387,-72,892,49,-75,72
784685,-379,-104,890,121,-17,161
784686,-410,-99,870,159,77,313
784687,-487,-65,902,215,93,389
784688,-476,53,913,207,-67,306
784689,-500,44,978,242,-305,207
784690,-427,33,964,130,-478,49
784691,-399,-22,963,-9,-448,-35
784692,-362,-37,937,-91,-305,-100
784693,-347,-49,960,-81,-33,-128
784694,-357,-44,963,-148,257,-100
784695,-392,-46,941,-223,406,-72
784696,-424,-33,936,-238,466,-83
784697,-438,-32,922,-274,483,-88
784698,-438,-31,905,-291,436,-102
784699,-433,-42,890,-261,357,-107
784700,-428,-45,878,-222,275,-85
784701,-433,-56,863,-163,215,-30
784702,-438,-85,893,-109,170,-2
784703,-435,-79,892,-109,140,-30
784704,-436,-67,876,-95,121,-14
784705,-442,-69,874,-16,54,7
784706,-453,-64,886,27,-18,33
784707,-442,-52,881,58,-101,49
784708,-443,-58,903,107,-179,55
784709,-440,-54,913,110,-212,56
784710,-428,-52,912,105,-202,63
784711,-429,-52,930,105,-173,64
784712,-417,-48,936,81,-119,60
784713,-426,-40,927,57,-58,53
784714,-434,-34,931,21,0,42
784715,-427,-41,924,-10,37,21
784716,-433,-51,920,-28,54,3
784717,-432,-52,909,-42,68,1
784718,-434,-49,900,-40,57,3
784719,-438,-50,890,-31,19,3
784720,-429,-52,890,4,-22,12
784721,-433,-58,900,27,-47,24
784722,-434,-54,902,38,-61,35
784723,-432,-50,915,56,-76,43
784724,-432,-46,921,52,-82,42
784725,-440,-42,927,50,-77,43
784726,-436,-48,920,37,-70,39
784727,-430,-45,916,25,-63,31
784728,-423,-50,919,30,-52,32
784729,-422,-53,907,16,-37,30
784730,-426,-57,915,28,-11,39
784731,-431,-45,913,18,4,44
784732,-426,-46,916,7,-2,36
784733,-438,-53,912,31,-16,36
784734,-432,-51,896,19,-24,45
784735,-426,-52,900,37,-41,48
784736,-419,-53,903,49,-50,49
784737,-424,-51,898,53,-55,56
784738,-424,-43,893,59,-74,66
784739,-426,-39,913,102,-123,66
784740,-425,-41,913,107,-155,65
784741,-427,-50,915,100,-164,77
784742,-428,-46,919,108,-165,84
784743,-414,-43,921,138,-165,82
784744,-429,-40,935,142,-134,95
784745,-419,-32,931,119,-91,109
784746,-434,-39,931,112,-70,105
784747,-428,-26,916,110,-62,92
784748,-438,-26,923,109,-53,95
784749,-426,-41,912,102,-47,107
784750,-438,-55,877,124,-30,148
784751,-409,-42,889,196,-105,146
784752,-429,-36,905,268,-200,162
784753,-422,-9,870,221,-299,160
784754,-413,-25,892,289,-410,158
784755,-407,-24,914,349,-476,148
784756,-411,-18,930,300,-456,161
784757,-445,0,920,228,-390,137
784758,-368,5,981,196,-298,74
784759,-393,11,954,121,-284,72
784760,-387,0,978,102,-212,49
784761,-388,1,980,39,-87,17
784762,-386,-14,946,-25,26,-4
784763,-398,-20,929,-37,88,-7
784764,-405,-18,918,-36,110,13
784765,-414,-11,903,-7,67,25
784766,-413,-17,906,29,-5,35
784767,-407,-16,906,35,-70,42
784768,-401,-13,926,46,-119,42
784769,-394,-4,935,42,-126,32
784770,-398,-5,939,25,-90,22
784771,-390,-7,942,12,-39,19
784772,-397,-4,941,-11,2,11
784773,-402,-10,933,-7,28,12
784774,-405,-13,926,-16,38,12
784775,-404,-22,914,-4,27,25
784776,-404,-11,924,7,4,32
784777,-406,-10,924,18,-18,37
784778,-403,-7,928,23,-30,36
784779,-394,-13,928,9,-20,32
784780,-395,-11,925,5,2,26
784781,-400,-9,927,1,35,26
784782,-404,-5,936,-15,61,27
784783,-408,-6,926,-17,61,21
784784,-409,-8,922,-21,36,16
784785,-408,-14,922,-18,3,9
784786,-438,-19,943,-15,-8,9
784787,-419,8,931,-47,-30,-6
784788,-406,-19,936,-19,-53,-10
784789,-395,-23,937,-25,-26,-7
784790,-380,-27,908,-37,24,18
784791,-396,-16,914,-2,46,31
784792,-403,-3,913,-9,63,32
784793,-410,-4,910,-15,40,17
784794,-415,-12,916,-12,-4,0
784795,-404,-19,913,-19,-38,-2
784796,-404,-21,915,0,-65,2
784797,-400,-20,929,14,-65,16
784798,-397,-17,939,23,-47,27
784799,-409,-7,941,16,-22,30
784800,-406,-2,940,10,0,26
784801,-411,-8,930,-14,13,14
784802,-404,-13,932,-28,28,8
784803,-409,-10,932,-32,37,2
784804,-405,-17,928,-39,46,5
784805,-408,-12,915,-34,37,4
784806,-406,-23,919,-28,18,2
784807,-406,-20,916,-22,5,5
784808,-409,-13,917,-8,-6,11
784809,-410,-13,919,2,-17,16
784810,-405,-22,916,13,-30,23
784811,-405,-23,917,24,-38,30
784812,-403,-12,917,31,-41,36
784813,-395,-11,930,48,-38,36
784814,-408,-11,925,50,-52,36
784815,-405,-17,915,52,-77,39
784816,-403,-17,922,64,-103,44
784817,-406,-10,934,70,-119,44
784818,-405,-6,939,54,-114,44
784819,-398,-12,950,51,-91,39
784820,-400,-7,943,23,-49,31
784821,-399,-7,938,8,-8,22
784822,-399,-11,931,-4,23,19
784823,-403,-16,917,-4,30,21
784824,-403,-10,919,5,16,24
784825,-404,-12,917,11,-8,30
784826,-410,-12,919,29,-44,34
784827,-406,-10,920,32,-71,32
784828,-395,-6,925,28,-82,29
784829,-399,-11,929,29,-76,30
784830,-399,-7,929,28,-56,30
784831,-405,-13,930,23,-31,29
784832,-402,-6,927,26,-15,27
784833,-411,-15,938,27,2,46
784834,-404,-12,917,52,-28,55
784835,-412,-11,926,69,-63,59
784836,-397,-1,919,42,-82,53
784837,-390,-10,925,51,-94,45
784838,-392,-8,929,52,-80,39
784839,-391,1,935,27,-44,32
784840,-397,-2,935,8,-20,20
784841,-402,-3,939,-3,-15,12
784842,-404,-7,926,-4,-21,9
784843,-398,-15,930,0,-23,13
784844,-402,-11,926,4,-18,19
784845,-396,-10,917,8,-11,24
784846,-398,-13,919,15,-9,25
784847,-395,-7,921,15,-4,26
784848,-395,0,927,9,-7,25
784849,-403,0,933,9,-25,15
784850,-400,-5,927,-1,-31,9
784851,-395,-8,927,-4,-23,9
784852,-398,-4,936,-1,-5,12
784853,-399,-8,934,-2,8,16
784854,-402,-1,929,0,7,19
784855,-399,-8,920,2,-1,21
784856,-399,-10,920,9,-10,25
784857,-397,-14,922,13,-16,28
784858,-401,-7,915,21,-18,33
784859,-399,-13,918,26,-16,37
784860,-399,-5,919,28,-12,39
784861,-402,-6,927,30,-14,40
784862,-401,-8,927,33,-20,39
784863,-399,-5,926,35,-23,39
784864,-399,-12,923,38,-23,43
784865,-399,-10,926,47,-23,51
784866,-405,-10,930,53,-15,59
784867,-398,-7,937,51,-6,63
784868,-401,-3,928,54,-5,63
784869,-404,-3,920,55,-13,63
784870,-399,0,921,70,-23,64
784871,-387,-7,917,68,-30,67
784872,-409,6,933,68,-35,66
784873,-426,31,936,9,-51,44
784874,-383,-21,913,11,-72,14
784875,-392,-28,925,46,-43,39
784876,-402,15,930,43,-5,60
784877,-400,1,930,58,-8,54
784878,-401,5,927,39,-18,46
784879,-395,-7,921,46,-43,42
784880,-397,-3,924,59,-60,49
784881,-402,8,925,63,-65,54
784882,-399,0,934,64,-69,51
784883,-406,1,933,64,-65,49
784884,-398,8,940,48,-49,49
784885,-399,9,942,35,-29,43
784886,-394,10,931,14,-9,30
784887,-405,6,926,-6,0,21
784888,-400,1,929,-15,-4,12
784889,-392,1,930,-22,-11,6
784890,-397,-1,932,-24,-18,0
784891,-397,-1,926,-27,-14,0
784892,-403,4,932,-25,-11,1
784893,-401,5,931,-21,-16,2
784894,-396,0,933,-23,-23,0
784895,-397,0,929,-21,-26,1
784896,-396,0,926,-19,-27,-2
784897,-390,-1,922,-16,-32,-7
784898,-400,-7,926,-26,-31,-11
784899,-394,1,926,-30,-28,-14
784900,-403,2,931,-25,-31,-11
784901,-405,1,937,-30,-33,-14
784902,-403,4,933,-35,-31,-18
784903,-402,7,936,-39,-28,-20
784904,-408,13,941,-56,-25,-32
784905,-363,8,923,-73,-24,-51
784906,-365,-38,911,-30,5,-24
784907,-385,-11,914,-48,66,16
784908,-394,0,923,-37,86,17
784909,-410,9,948,-44,81,3
784910,-410,12,944,-99,72,-21
784911,-405,-4,935,-108,53,-39
# samples=1845
# gaps=1
